timestamp_ns,gyro_x_rad_s,gyro_y_rad_s,gyro_z_rad_s,linacc_x_m_s2,linacc_y_m_s2,linacc_z_m_s2
7142486470000,0.158203125,-0.095703125,-0.033203125,0.23046875,0.01953125,0.390625
7142489053000,0.173828125,-0.08984375,-0.0234375,0.25,-0.06640625,0.3984375
7142494086000,0.1953125,-0.068359375,-0.041015625,0.25,-0.06640625,0.3984375
7142496854000,0.19921875,-0.060546875,-0.044921875,0.28515625,-0.06640625,0.32421875
7142501503000,0.1953125,-0.05078125,-0.041015625,0.28515625,-0.05859375,0.32421875
7142504049000,0.19140625,-0.048828125,-0.03515625,0.31640625,-0.05078125,0.28515625
7142506367000,0.185546875,-0.03125,-0.03515625,0.31640625,-0.08984375,0.2578125
7142508930000,0.18359375,-0.03125,-0.03125,0.30859375,-0.08984375,0.2578125
7142511542000,0.18359375,-0.02734375,-0.029296875,0.31640625,-0.1171875,0.2265625
7142513881000,0.1640625,-0.02734375,-0.025390625,0.28515625,-0.1171875,0.23828125
7142516498000,0.15234375,-0.015625,-0.0234375,0.28515625,-0.0703125,0.19921875
7142518818000,0.1484375,-0.021484375,-0.013671875,0.28515625,-0.05078125,0.19921875
7142521576000,0.130859375,-0.005859375,-0.01171875,0.28515625,-0.05078125,0.19140625
7142524087000,0.12109375,-0.009765625,-0.009765625,0.32421875,-0.08984375,0.18359375
7142529003000,0.08984375,-0.013671875,0.001953125,0.32421875,-0.08984375,0.19140625
7142531808000,0.078125,-0.009765625,0.017578125,0.3828125,-0.1015625,0.15234375
7142533918000,0.064453125,0.0078125,0.02734375,0.390625,-0.16796875,0.14453125
7142536447000,0.044921875,0.00390625,0.052734375,0.390625,-0.1953125,0.0859375
7142538869000,0.064453125,0.0078125,0.041015625,0.36328125,-0.20703125,0.1015625
7142543768000,0.068359375,0.0078125,0.046875,0.36328125,-0.21484375,0.09375
7142546280000,0.0625,0.0078125,0.0625,0.34375,-0.203125,0.05859375
7142548867000,0.068359375,0.0,0.0703125,0.36328125,-0.15625,0.06640625
7142551376000,0.076171875,0.005859375,0.072265625,0.36328125,-0.15625,0.06640625
7142553915000,0.078125,0.013671875,0.091796875,0.3828125,-0.13671875,0.11328125
7142556519000,0.08203125,-0.005859375,0.083984375,0.421875,-0.1171875,0.12109375
7142558931000,0.0859375,0.013671875,0.115234375,0.4765625,-0.1640625,0.11328125
7142563897000,0.091796875,0.009765625,0.111328125,0.46875,-0.171875,0.12109375
7142566723000,0.09765625,0.001953125,0.134765625,0.49609375,-0.125,0.171875
7142568964000,0.107421875,0.015625,0.126953125,0.4765625,-0.08203125,0.20703125
7142571261000,0.111328125,0.015625,0.1484375,0.4765625,-0.08203125,0.20703125
7142573786000,0.115234375,0.029296875,0.13671875,0.48828125,-0.04296875,0.171875
7142576312000,0.126953125,0.03125,0.123046875,0.4609375,0.015625,0.21875
7142578815000,0.12890625,0.0390625,0.142578125,0.43359375,0.0625,0.23828125
7142583840000,0.154296875,0.060546875,0.134765625,0.43359375,0.0546875,0.23828125
7142586702000,0.16015625,0.064453125,0.13671875,0.453125,0.1015625,0.25390625
7142588662000,0.173828125,0.07421875,0.12890625,0.453125,0.09375,0.25390625
7142591338000,0.1875,0.078125,0.126953125,0.453125,0.06640625,0.2265625
7142593878000,0.169921875,0.08203125,0.12890625,0.43359375,0.125,0.1875
7142598810000,0.19140625,0.103515625,0.126953125,0.43359375,0.1171875,0.1875
7142601388000,0.19921875,0.1015625,0.123046875,0.3359375,0.1171875,0.1640625
7142603697000,0.2109375,0.091796875,0.1171875,0.30859375,0.10546875,0.13671875
7142606254000,0.21875,0.11328125,0.123046875,0.30859375,0.09765625,0.13671875
7142608632000,0.232421875,0.111328125,0.123046875,0.30859375,0.0390625,0.1171875
7142611245000,0.24609375,0.111328125,0.11328125,0.328125,0.01171875,0.06640625
7142613917000,0.248046875,0.123046875,0.126953125,0.328125,0.00390625,0.07421875
7142616320000,0.263671875,0.12109375,0.123046875,0.31640625,0.03125,0.01953125
7142618780000,0.267578125,0.130859375,0.12890625,0.328125,0.08203125,-0.01953125
7142621281000,0.259765625,0.12890625,0.126953125,0.26953125,0.140625,-0.09765625
7142623686000,0.267578125,0.12890625,0.142578125,0.26171875,0.140625,-0.09765625
7142626233000,0.287109375,0.13671875,0.150390625,0.23046875,0.20703125,-0.12109375
7142628778000,0.271484375,0.1328125,0.14453125,0.23046875,0.265625,-0.08984375
7142631237000,0.26171875,0.134765625,0.15625,0.22265625,0.2578125,-0.08984375
7142633786000,0.265625,0.134765625,0.15234375,0.2421875,0.36328125,-0.1875
7142638677000,0.248046875,0.126953125,0.162109375,0.18359375,0.421875,-0.31640625
7142641186000,0.24609375,0.130859375,0.13671875,0.09765625,0.44140625,-0.37109375
7142646138000,0.236328125,0.111328125,0.12890625,0.09765625,0.43359375,-0.36328125
7142648981000,0.220703125,0.125,0.12890625,0.0703125,0.453125,-0.38671875
7142651151000,0.212890625,0.111328125,0.099609375,0.03125,0.453125,-0.39453125
7142653633000,0.197265625,0.107421875,0.1015625,0.03125,0.453125,-0.39453125
7142656194000,0.189453125,0.095703125,0.09375,0.04296875,0.38671875,-0.34765625
7142660993000,0.146484375,0.09375,0.072265625,0.04296875,0.38671875,-0.34765625
7142663663000,0.140625,0.08984375,0.072265625,0.05859375,0.3515625,-0.33984375
7142666267000,0.1171875,0.09375,0.044921875,0.05078125,0.34375,-0.29296875
7142668651000,0.1171875,0.08984375,0.05078125,0.04296875,0.34375,-0.29296875
7142671228000,0.115234375,0.08984375,0.041015625,0.04296875,0.29296875,-0.265625
7142673638000,0.111328125,0.0859375,0.0234375,0.04296875,0.29296875,-0.265625
7142676147000,0.115234375,0.08203125,0.01953125,-0.0078125,0.1328125,-0.2578125
7142681136000,0.138671875,0.07421875,0.00390625,-0.0078125,0.1328125,-0.25
7142684089000,0.166015625,0.068359375,-0.005859375,-0.046875,0.0546875,-0.3046875
7142686001000,0.1875,0.056640625,-0.017578125,-0.12109375,0.02734375,-0.32421875
7142688520000,0.21484375,0.052734375,-0.033203125,-0.12109375,0.02734375,-0.32421875
7142691066000,0.240234375,0.029296875,-0.04296875,-0.16796875,-0.0703125,-0.31640625
7142693617000,0.279296875,0.029296875,-0.0546875,-0.20703125,-0.13671875,-0.30859375
7142696100000,0.310546875,0.015625,-0.0703125,-0.20703125,-0.17578125,-0.30859375
7142700974000,0.38671875,0.0078125,-0.08203125,-0.21484375,-0.17578125,-0.30859375
7142703624000,0.427734375,0.009765625,-0.12109375,-0.2265625,-0.20703125,-0.34765625
7142705880000,0.478515625,0.0,-0.138671875,-0.30078125,-0.2265625,-0.296875
7142708465000,0.505859375,-0.013671875,-0.138671875,-0.30078125,-0.21875,-0.296875
7142710807000,0.552734375,-0.017578125,-0.162109375,-0.33984375,-0.27734375,-0.22265625
7142713543000,0.578125,-0.02734375,-0.173828125,-0.37890625,-0.2890625,-0.18359375
7142716045000,0.607421875,-0.0390625,-0.193359375,-0.3984375,-0.2890625,-0.15625
7142718351000,0.6484375,-0.033203125,-0.212890625,-0.37890625,-0.2734375,-0.1171875
7142721006000,0.671875,-0.029296875,-0.220703125,-0.37890625,-0.265625,-0.1171875
7142723550000,0.693359375,-0.033203125,-0.224609375,-0.41796875,-0.15234375,-0.0703125
7142728430000,0.74609375,-0.041015625,-0.240234375,-0.41796875,-0.14453125,-0.0703125
7142731306000,0.76171875,-0.044921875,-0.251953125,-0.50390625,-0.08984375,0.07421875
7142733395000,0.7578125,-0.0546875,-0.2578125,-0.5234375,-0.03125,0.1328125
7142735985000,0.78125,-0.0625,-0.275390625,-0.55078125,-0.03515625,0.19921875
7142738313000,0.791015625,-0.06640625,-0.279296875,-0.55859375,-0.03515625,0.23828125
7142743520000,0.8125,-0.09375,-0.30078125,-0.55859375,-0.01953125,0.23046875
7142745783000,0.83203125,-0.099609375,-0.30859375,-0.63671875,-0.00390625,0.34375
7142748325000,0.837890625,-0.111328125,-0.341796875,-0.6484375,-0.046875,0.48828125
7142750795000,0.8515625,-0.125,-0.345703125,-0.6484375,-0.0390625,0.48828125
7142753378000,0.873046875,-0.125,-0.375,-0.67578125,-0.05078125,0.60546875
7142756018000,0.892578125,-0.126953125,-0.38671875,-0.65625,-0.109375,0.71875
7142758321000,0.919921875,-0.138671875,-0.416015625,-0.6875,-0.19921875,0.81640625
7142763329000,0.9765625,-0.169921875,-0.453125,-0.6875,-0.17578125,0.81640625
7142766150000,1.025390625,-0.173828125,-0.466796875,-0.71484375,-0.2734375,0.85546875
7142768317000,1.05859375,-0.1796875,-0.4765625,-0.71484375,-0.296875,0.953125
7142770805000,1.083984375,-0.1796875,-0.5,-0.71484375,-0.28125,0.953125
7142773340000,1.11328125,-0.169921875,-0.505859375,-0.70703125,-0.37109375,1.04296875
7142775829000,1.134765625,-0.18359375,-0.515625,-0.7265625,-0.44140625,1.203125
7142778264000,1.140625,-0.181640625,-0.505859375,-0.66796875,-0.51171875,1.4453125
7142783325000,1.138671875,-0.1953125,-0.517578125,-0.66015625,-0.48828125,1.4375
7142786167000,1.142578125,-0.197265625,-0.50390625,-0.6328125,-0.54296875,1.65625
7142788321000,1.142578125,-0.22265625,-0.50390625,-0.57421875,-0.58203125,1.91015625
7142790886000,1.16015625,-0.25,-0.486328125,-0.48828125,-0.5859375,2.015625
7142793271000,1.181640625,-0.279296875,-0.48828125,-0.48828125,-0.5703125,2.015625
7142795805000,1.22265625,-0.302734375,-0.46484375,-0.44921875,-0.6484375,2.0546875
7142798223000,1.2734375,-0.314453125,-0.48046875,-0.44140625,-0.671875,2.171875
7142800768000,1.341796875,-0.337890625,-0.47265625,-0.375,-0.66796875,2.35546875
7142803325000,1.416015625,-0.330078125,-0.470703125,-0.375,-0.65234375,2.34765625
7142805715000,1.484375,-0.333984375,-0.494140625,-0.23046875,-0.5390625,2.66796875
7142810758000,1.619140625,-0.283203125,-0.482421875,-0.22265625,-0.5,2.65234375
7142813550000,1.6796875,-0.263671875,-0.453125,0.484375,-0.0234375,3.046875
7142818259000,1.833984375,-0.296875,-0.5234375,0.140625,-0.43359375,3.328125
7142820969000,1.970703125,-0.2890625,-0.58984375,0.0078125,-0.703125,3.30078125
7142823276000,2.08984375,-0.240234375,-0.64453125,0.140625,-0.87890625,3.25
7142825829000,2.2109375,-0.2109375,-0.716796875,0.140625,-0.85546875,3.2421875
7142828081000,2.365234375,-0.1640625,-0.759765625,0.1875,-0.96484375,3.21875
7142830600000,2.490234375,-0.14453125,-0.8203125,0.3515625,-1.03125,3.15234375
7142833132000,2.640625,-0.076171875,-0.87890625,0.3515625,-1.0078125,3.15234375
7142835595000,2.76171875,-0.03125,-0.931640625,0.70703125,-0.90625,3.125
7142838222000,2.88671875,0.021484375,-0.955078125,0.8125,-0.6953125,3.21875
7142840681000,2.994140625,0.06640625,-0.99609375,0.95703125,-0.5546875,3.31640625
7142845681000,3.13671875,0.166015625,-1.041015625,0.94921875,-0.484375,3.30859375
7142848012000,3.1875,0.216796875,-1.0625,1.15625,-0.3359375,3.36328125
7142850549000,3.228515625,0.287109375,-1.0859375,1.359375,-0.26953125,3.36328125
7142853075000,3.234375,0.353515625,-1.1171875,1.359375,-0.23828125,3.37109375
7142855715000,3.244140625,0.43359375,-1.1171875,1.8203125,-0.2265625,3.0859375
7142858165000,3.234375,0.51171875,-1.130859375,1.8203125,-0.1953125,3.1015625
7142860515000,3.208984375,0.578125,-1.142578125,1.9921875,-0.05078125,3.0234375
7142865676000,3.130859375,0.759765625,-1.1328125,1.984375,0.01953125,3.046875
7142868458000,3.068359375,0.849609375,-1.12109375,2.12890625,0.15625,3.1171875
7142870591000,2.95703125,0.96484375,-1.10546875,2.2734375,0.33203125,3.2578125
7142873167000,2.83203125,1.068359375,-1.08203125,2.53125,0.57421875,3.3203125
7142875586000,2.701171875,1.216796875,-1.056640625,2.7734375,0.8046875,3.30859375
7142878103000,2.54296875,1.3671875,-1.03515625,2.765625,0.8359375,3.33984375
7142880361000,2.359375,1.544921875,-1.017578125,2.9375,1.08984375,3.19921875
7142882967000,2.150390625,1.724609375,-0.994140625,3.04296875,1.38671875,3.01953125
7142885619000,1.9140625,1.9375,-0.966796875,3.03515625,1.41796875,3.05078125
7142888056000,1.66796875,2.169921875,-0.95703125,3.09765625,1.7109375,2.68359375
7142890543000,1.388671875,2.41015625,-0.9375,3.2890625,2.01953125,2.203125
7142893105000,1.076171875,2.662109375,-0.927734375,3.28125,2.04296875,2.265625
7142897063000,0.705078125,2.908203125,-0.900390625,3.46875,2.32421875,1.58984375
7142903055000,-0.662109375,3.697265625,-0.794921875,3.515625,2.98046875,0.2890625
7142908801000,-1.802734375,4.240234375,-0.693359375,3.3671875,3.359375,-0.51953125
7142916616000,-3.77734375,4.962890625,-0.486328125,2.79296875,4.1328125,-2.9453125
7142918058000,-4.462890625,5.14453125,-0.3984375,2.2421875,4.51953125,-4.1640625
7142920510000,-5.1640625,5.283203125,-0.3046875,2.2109375,4.50390625,-4.03125
7142923015000,-5.859375,5.396484375,-0.20703125,1.81640625,4.84375,-5.046875
7142927935000,-7.166015625,5.5703125,-0.05078125,1.74609375,4.7734375,-4.7578125
7142930749000,-7.763671875,5.625,0.0,1.2109375,5.1328125,-5.54296875
7142932817000,-8.27734375,5.65625,0.052734375,0.78515625,5.51953125,-6.42578125
7142935438000,-8.68359375,5.650390625,0.09765625,0.4140625,5.75390625,-7.50390625
7142938031000,-9.037109375,5.6328125,0.119140625,0.078125,5.92578125,-8.60546875
7142940439000,-9.26953125,5.55078125,0.140625,0.0234375,5.84765625,-8.45703125
7142943031000,-9.3828125,5.427734375,0.134765625,-0.3984375,5.94140625,-9.3125
7142945423000,-9.416015625,5.29296875,0.14453125,-0.8203125,5.6953125,-9.6875
7142948003000,-9.38671875,5.099609375,0.087890625,-0.875,5.6015625,-9.5546875
7142950259000,-9.267578125,4.78515625,0.00390625,-1.4765625,5.4296875,-9.875
7142955554000,-8.837890625,4.044921875,-0.193359375,-1.5703125,5.2421875,-9.6640625
7142957887000,-8.552734375,3.625,-0.3125,-2.17578125,4.6953125,-9.64453125
7142962885000,-7.970703125,2.779296875,-0.5390625,-2.24609375,4.53125,-9.50390625
7142965650000,-7.669921875,2.388671875,-0.654296875,-2.046875,4.13671875,-9.328125
7142967879000,-7.3515625,2.03125,-0.7734375,-1.70703125,3.6796875,-9.19921875
7142970319000,-7.05859375,1.705078125,-0.8515625,-1.73046875,3.625,-9.16015625
7142972829000,-6.78515625,1.408203125,-0.953125,-1.421875,3.16015625,-9.03125
7142975258000,-6.482421875,1.1328125,-1.021484375,-1.359375,2.5703125,-8.8359375
7142977806000,-6.203125,0.880859375,-1.099609375,-1.42578125,1.8046875,-8.4921875
7142982716000,-5.650390625,0.359375,-1.216796875,-1.51953125,0.9921875,-8.015625
7142990218000,-4.857421875,-0.41015625,-1.3046875,-1.7890625,-1.00390625,-6.66015625
7142997808000,-3.8671875,-1.21484375,-1.193359375,-2.16015625,-3.27734375,-5.53125
7143000325000,-3.48828125,-1.48046875,-1.107421875,-2.2421875,-4.26171875,-4.69921875
7143002669000,-3.052734375,-1.7421875,-0.990234375,-2.21875,-4.28515625,-4.74609375
7143005325000,-2.650390625,-2.0078125,-0.8515625,-2.0703125,-5.00390625,-3.671875
7143010275000,-1.798828125,-2.45703125,-0.556640625,-2.0234375,-5.01953125,-3.78125
7143013069000,-1.390625,-2.634765625,-0.3984375,-1.875,-5.42578125,-2.5703125
7143017768000,-0.607421875,-2.912109375,-0.091796875,-1.6875,-5.625,-1.31640625
7143020487000,-0.240234375,-3.0546875,0.0625,-1.59765625,-5.60546875,0.03125
7143022611000,0.09765625,-3.14453125,0.1796875,-1.546875,-5.55859375,1.2890625
7143025213000,0.421875,-3.234375,0.326171875,-1.44921875,-5.625,2.33984375
7143027693000,0.740234375,-3.30078125,0.455078125,-1.41796875,-5.69921875,3.3125
7143030127000,1.052734375,-3.365234375,0.546875,-1.38671875,-5.69921875,3.234375
7143032792000,1.326171875,-3.423828125,0.673828125,-1.046875,-5.2109375,4.21875
7143037754000,1.79296875,-3.47265625,0.919921875,-0.9921875,-5.21875,4.0703125
7143045160000,2.453125,-3.560546875,1.1953125,-1.05859375,-5.7109375,5.37890625
7143052501000,3.052734375,-3.36328125,1.392578125,-0.12109375,-5.75390625,6.17578125
7143060028000,3.60546875,-3.046875,1.541015625,1.09375,-5.421875,7.43359375
7143065188000,3.9140625,-2.802734375,1.6484375,1.125,-5.4453125,7.30859375
7143067622000,4.064453125,-2.673828125,1.68359375,1.58984375,-5.25,7.40625
7143070182000,4.1953125,-2.529296875,1.724609375,2.046875,-5.02734375,7.265625
7143072559000,4.35546875,-2.375,1.728515625,2.40625,-4.86328125,7.0078125
7143075134000,4.501953125,-2.208984375,1.736328125,2.69140625,-4.58203125,6.73828125
7143077676000,4.65234375,-2.037109375,1.73046875,2.69921875,-4.59765625,6.69921875
7143079910000,4.822265625,-1.857421875,1.703125,3.03515625,-4.30078125,6.3828125
7143082519000,5.009765625,-1.658203125,1.6484375,3.3125,-3.84375,6.03515625
7143085147000,5.158203125,-1.44140625,1.58203125,3.3203125,-3.8515625,6.01171875
7143087483000,5.33203125,-1.216796875,1.484375,3.671875,-3.31640625,5.58203125
7143090060000,5.48046875,-0.96484375,1.376953125,3.90234375,-2.703125,5.078125
7143092519000,5.671875,-0.7265625,1.23828125,3.90234375,-2.703125,5.0703125
7143096689000,5.8515625,-0.462890625,1.083984375,4.24609375,-2.0625,4.515625
7143102538000,6.41796875,0.216796875,0.537109375,4.11328125,-1.0390625,2.90625
7143108268000,6.75,0.5703125,0.134765625,3.703125,-0.27734375,2.1953125
7143119980000,7.154296875,0.93359375,-0.81640625,2.65234375,1.71484375,0.0859375
7143122438000,7.12890625,1.00390625,-1.255859375,2.453125,2.3515625,-0.609375
7143127521000,6.94140625,1.03515625,-1.642578125,2.4296875,2.515625,-0.5390625
7143129918000,6.8203125,1.0546875,-1.771484375,2.25,2.9375,-1.12109375
7143132315000,6.623046875,1.0859375,-1.939453125,2.2109375,3.234375,-1.578125
7143134919000,6.38671875,1.107421875,-2.0390625,2.26953125,3.546875,-1.796875
7143137449000,6.08203125,1.1875,-2.12109375,2.3671875,3.7734375,-2.1171875
7143143349000,5.3359375,1.3671875,-2.205078125,2.4765625,4.19140625,-2.37109375
7143149881000,3.798828125,1.7890625,-2.140625,2.8515625,4.61328125,-3.21875
7143157445000,1.919921875,2.306640625,-1.904296875,1.875,4.56640625,-4.5234375
7143162383000,0.5859375,2.69921875,-1.740234375,1.578125,4.79296875,-5.34375
7143164797000,-0.1015625,2.90234375,-1.650390625,1.05859375,4.9921875,-6.140625
7143167312000,-0.779296875,3.080078125,-1.5859375,1.02734375,5.0234375,-6.0703125
7143169884000,-1.44921875,3.23046875,-1.509765625,0.2265625,5.36328125,-6.52734375
7143172298000,-2.12109375,3.3359375,-1.431640625,-0.6640625,5.58203125,-6.82421875
7143177223000,-3.400390625,3.49609375,-1.37109375,-0.734375,5.59765625,-6.66015625
7143179820000,-3.96875,3.529296875,-1.37109375,-1.62890625,5.60546875,-6.82421875
7143182387000,-4.484375,3.529296875,-1.373046875,-1.92578125,5.54296875,-6.87109375
7143184764000,-4.970703125,3.5234375,-1.376953125,-1.96484375,5.52734375,-6.78515625
7143187273000,-5.392578125,3.48046875,-1.373046875,-2.0625,5.28125,-7.06640625
7143189928000,-5.74609375,3.427734375,-1.3828125,-2.1015625,5.25,-6.98046875
7143192179000,-6.0234375,3.310546875,-1.375,-2.20703125,4.96875,-7.484375
7143194847000,-6.228515625,3.19140625,-1.357421875,-2.265625,4.57421875,-8.21484375
7143197206000,-6.361328125,3.02734375,-1.333984375,-2.375,4.125,-8.90234375
7143204724000,-6.40625,2.3984375,-1.26953125,-2.91796875,3.42578125,-10.0703125
7143212218000,-5.9765625,1.591796875,-1.224609375,-3.484375,3.1015625,-10.32421875
7143221504000,-5.466796875,0.63671875,-1.251953125,-4.43359375,2.30078125,-9.07421875
7143224700000,-5.20703125,0.015625,-1.25390625,-4.39453125,1.828125,-8.421875
7143227310000,-5.091796875,-0.26953125,-1.255859375,-4.39453125,1.14453125,-7.875
7143229565000,-4.98046875,-0.564453125,-1.25,-4.39453125,1.11328125,-7.8828125
7143232246000,-4.8515625,-0.849609375,-1.232421875,-4.3671875,0.25,-7.28515625
7143237010000,-4.548828125,-1.375,-1.134765625,-4.34375,0.1796875,-7.33203125
7143244602000,-4.0703125,-2.1328125,-0.865234375,-4.234375,-1.54296875,-5.66796875
7143252168000,-3.6484375,-2.755859375,-0.439453125,-3.6484375,-3.296875,-3.2734375
7143259596000,-3.166015625,-3.189453125,0.056640625,-2.97265625,-6.0,0.27734375
7143264483000,-2.6796875,-3.3671875,0.4140625,-2.90234375,-6.0703125,0.12890625
7143267124000,-2.369140625,-3.423828125,0.5859375,-2.9296875,-6.80859375,0.875
7143269462000,-2.04296875,-3.49609375,0.755859375,-2.95703125,-7.25,1.5234375
7143272066000,-1.68359375,-3.5625,0.943359375,-2.8203125,-7.51171875,2.1484375
7143274707000,-1.3125,-3.6328125,1.095703125,-2.6484375,-7.6171875,2.76171875
7143279548000,-0.591796875,-3.80859375,1.396484375,-2.5859375,-7.703125,2.59765625
7143282506000,-0.2421875,-3.896484375,1.533203125,-2.27734375,-7.6171875,3.26953125
7143284655000,0.05859375,-3.974609375,1.646484375,-1.9296875,-7.37109375,3.98828125
7143286989000,0.333984375,-4.02734375,1.744140625,-1.90625,-7.41015625,3.90234375
7143289503000,0.58984375,-4.060546875,1.814453125,-1.58984375,-7.19921875,4.5078125
7143291859000,0.8515625,-4.083984375,1.876953125,-1.3359375,-6.953125,5.1328125
7143294679000,1.08203125,-4.111328125,1.923828125,-0.99609375,-6.80078125,5.6328125
7143299433000,1.51953125,-4.087890625,1.9765625,-0.93359375,-6.87109375,5.453125
7143303771000,1.71875,-4.0390625,1.974609375,-0.03125,-6.6328125,6.2109375
7143311551000,2.201171875,-3.751953125,1.99609375,0.8359375,-6.6484375,7.09375
7143319414000,2.505859375,-3.431640625,2.0234375,1.75390625,-6.609375,7.671875
7143323294000,2.630859375,-3.162109375,2.06640625,2.3515625,-6.45703125,7.87890625
7143326984000,2.716796875,-2.802734375,2.16015625,2.375,-6.52734375,7.75390625
7143329442000,2.70703125,-2.626953125,2.212890625,3.21484375,-5.66796875,7.9765625
7143331838000,2.763671875,-2.509765625,2.234375,2.94921875,-5.92578125,7.77734375
7143334520000,2.80859375,-2.373046875,2.21875,3.55859375,-5.546875,7.1953125
7143336935000,2.859375,-2.197265625,2.21875,3.8828125,-4.953125,6.46875
7143342868000,3.029296875,-1.875,2.162109375,4.06640625,-4.17578125,5.83203125
7143349415000,3.30078125,-1.4609375,1.94921875,4.515625,-2.171875,5.07421875
7143356953000,3.423828125,-1.12890625,1.568359375,5.0625,-0.5546875,4.28515625
7143361946000,3.50390625,-0.916015625,1.177734375,5.0546875,-0.59375,4.26953125
7143364326000,3.548828125,-0.82421875,0.947265625,5.34375,0.80859375,2.98046875
7143366817000,3.623046875,-0.73046875,0.708984375,5.34375,0.80859375,2.98046875
7143369391000,3.72265625,-0.62890625,0.43359375,5.62109375,1.625,2.01171875
7143371802000,3.826171875,-0.517578125,0.1640625,5.70703125,2.53125,1.08984375
7143376826000,4.072265625,-0.36328125,-0.3671875,5.70703125,2.5703125,1.09765625
7143381877000,4.28515625,-0.23046875,-0.8828125,5.6484375,3.265625,0.4140625
7143384614000,4.326171875,-0.087890625,-1.123046875,5.921875,3.84765625,-0.3203125
7143386791000,4.322265625,0.083984375,-1.31640625,6.26953125,4.32421875,-0.7421875
7143389347000,4.26171875,0.294921875,-1.46875,6.609375,5.03515625,-0.99609375
7143391698000,4.123046875,0.53515625,-1.615234375,6.609375,5.08984375,-0.97265625
7143394353000,3.916015625,0.783203125,-1.72265625,6.55078125,5.76171875,-1.24609375
7143396753000,3.63671875,1.0703125,-1.8046875,5.9296875,6.3359375,-1.6015625
7143404132000,2.369140625,2.0234375,-1.966796875,4.51171875,7.38671875,-2.7890625
7143409263000,1.123046875,2.716796875,-1.958984375,4.06640625,8.19140625,-3.125
7143421022000,-1.970703125,3.916015625,-1.80859375,2.49609375,9.3828125,-5.16015625
7143424040000,-3.515625,4.466796875,-1.638671875,2.44921875,9.4296875,-4.97265625
7143426745000,-4.21484375,4.748046875,-1.517578125,2.58984375,9.63671875,-6.46875
7143429255000,-4.849609375,4.99609375,-1.41796875,2.703125,9.6953125,-8.37890625
7143431621000,-5.384765625,5.224609375,-1.328125,2.671875,9.6953125,-8.27734375
7143434186000,-5.826171875,5.419921875,-1.251953125,2.28515625,9.71484375,-10.3828125
7143436632000,-6.1796875,5.55078125,-1.197265625,1.203125,9.86328125,-12.5234375
7143439202000,-6.43359375,5.544921875,-1.208984375,-0.47265625,10.01171875,-14.19921875
7143444131000,-6.751953125,5.1875,-1.341796875,-0.55078125,9.95703125,-13.98828125
7143446591000,-6.822265625,4.888671875,-1.490234375,-2.01171875,9.8203125,-15.09375
7143449110000,-6.828125,4.5390625,-1.654296875,-2.9453125,9.625,-15.609375
7143451603000,-6.779296875,4.138671875,-1.83984375,-2.984375,9.6015625,-15.5234375
7143454323000,-6.701171875,3.712890625,-2.044921875,-3.42578125,9.0703125,-16.07421875
7143456537000,-6.548828125,3.2890625,-2.216796875,-3.44921875,9.0625,-16.01171875
7143459137000,-6.361328125,2.830078125,-2.4140625,-3.3203125,8.796875,-15.9296875
7143461617000,-6.150390625,2.388671875,-2.5703125,-2.98828125,8.34765625,-15.6328125
7143464080000,-5.89453125,1.931640625,-2.740234375,-3.00390625,8.33984375,-15.59375
7143466632000,-5.62890625,1.5078125,-2.873046875,-2.734375,7.72265625,-15.00390625
7143471510000,-5.076171875,0.697265625,-3.140625,-2.734375,7.75390625,-14.98046875
7143474362000,-4.78515625,0.314453125,-3.271484375,-2.62109375,5.6640625,-12.1171875
7143479759000,-4.359375,-0.3984375,-3.484375,-2.56640625,4.29296875,-9.99609375
7143487502000,-3.966796875,-1.1796875,-3.71484375,-2.20703125,0.73046875,-6.4140625
7143495630000,-3.69140625,-1.69140625,-3.654296875,-2.44921875,-2.8046875,-3.984375
7143499016000,-3.455078125,-1.96484375,-3.4453125,-2.40234375,-4.58984375,-2.765625
7143501760000,-3.328125,-2.09375,-3.291015625,-2.20703125,-6.4375,-1.5390625
7143506571000,-3.0859375,-2.30859375,-2.9140625,-2.16796875,-6.3515625,-1.6484375
7143509134000,-2.966796875,-2.40625,-2.697265625,-2.125,-7.94921875,-0.2265625
7143511519000,-2.84765625,-2.47265625,-2.462890625,-1.9296875,-9.31640625,1.1171875
7143514413000,-2.740234375,-2.51171875,-2.2109375,-1.8125,-10.47265625,2.5625
7143521508000,-2.314453125,-2.572265625,-1.4296875,-1.4921875,-12.23828125,5.28125
7143528893000,-1.83984375,-2.462890625,-0.623046875,-1.23046875,-12.84765625,6.23828125
7143538290000,-1.2734375,-2.2265625,0.125,-0.28515625,-14.546875,8.38671875
7143541387000,-0.849609375,-2.068359375,0.5703125,-0.26171875,-14.578125,8.27734375
7143543769000,-0.599609375,-2.021484375,0.791015625,-0.20703125,-15.08203125,8.6875
7143546430000,-0.333984375,-1.99609375,0.984375,-0.09375,-15.59375,8.95703125
7143548914000,-0.025390625,-1.9609375,1.1796875,-0.0859375,-15.625,8.90234375
7143551455000,0.298828125,-1.939453125,1.35546875,0.19921875,-15.88671875,9.23828125
7143553933000,0.6484375,-1.916015625,1.51953125,0.63671875,-15.77734375,9.66015625
7143556328000,1.021484375,-1.892578125,1.6953125,1.6796875,-15.15625,10.1796875
7143561449000,1.72265625,-1.763671875,2.0078125,1.6953125,-15.234375,10.09375
7143563859000,2.080078125,-1.720703125,2.123046875,2.24609375,-15.08984375,10.7109375
7143566276000,2.4453125,-1.6484375,2.240234375,3.2890625,-14.46875,11.09375
7143568740000,2.814453125,-1.5625,2.33984375,3.2890625,-14.5078125,11.0546875
7143571300000,3.16015625,-1.458984375,2.408203125,4.25390625,-13.54296875,11.234375
7143573837000,3.498046875,-1.322265625,2.49609375,5.0078125,-12.41015625,11.35546875
7143576283000,3.822265625,-1.169921875,2.55078125,5.78515625,-11.16796875,11.25390625
7143581136000,4.40234375,-0.798828125,2.609375,5.78515625,-11.23828125,11.21484375
7143584130000,4.666015625,-0.611328125,2.603515625,6.4453125,-10.01953125,10.82421875
7143586288000,4.927734375,-0.419921875,2.595703125,6.97265625,-8.61328125,9.921875
7143588844000,5.19140625,-0.23828125,2.546875,7.359375,-6.96875,8.50390625
7143591404000,5.416015625,-0.056640625,2.494140625,7.3515625,-7.0078125,8.51171875
7143593679000,5.66796875,0.115234375,2.41796875,7.5703125,-5.26171875,6.7578125
7143596320000,5.876953125,0.267578125,2.296875,7.69921875,-3.484375,4.97265625
7143603854000,6.37109375,0.583984375,1.79296875,7.3046875,0.328125,2.46484375
7143611226000,6.5390625,0.720703125,1.009765625,6.984375,1.90625,1.48046875
7143618761000,6.478515625,0.87109375,0.046875,6.6796875,5.7109375,-1.65234375
7143623762000,6.283203125,1.0234375,-0.6328125,6.69140625,6.97265625,-2.359375
7143626260000,6.111328125,1.138671875,-0.984375,6.8359375,8.1171875,-3.01171875
7143628712000,5.912109375,1.275390625,-1.3125,6.828125,8.1875,-2.97265625
7143631304000,5.61328125,1.451171875,-1.609375,7.0390625,9.203125,-3.48046875
7143633731000,5.248046875,1.66015625,-1.85546875,6.99609375,9.7421875,-4.1015625
7143638899000,4.283203125,2.140625,-2.240234375,6.8359375,10.01171875,-4.85546875
7143643636000,3.02734375,2.689453125,-2.412109375,6.7265625,9.9453125,-5.88671875
7143651232000,0.837890625,3.73828125,-2.423828125,6.48828125,10.1171875,-7.23828125
7143658585000,-1.482421875,4.873046875,-2.248046875,4.60546875,10.9921875,-13.234375
7143663402000,-2.234375,5.126953125,-2.19921875,3.67578125,11.07421875,-15.22265625
7143666055000,-3.5703125,5.5,-2.1796875,2.8359375,10.99609375,-17.5
7143671176000,-4.537109375,5.59375,-2.240234375,2.71875,11.01171875,-17.2421875
7143673815000,-4.900390625,5.53125,-2.302734375,0.7421875,10.6640625,-22.38671875
7143679159000,-5.244140625,5.125,-2.521484375,-0.3828125,10.71484375,-24.05859375
7143686956000,-5.193359375,3.912109375,-3.00390625,-2.25390625,10.578125,-25.83984375
7143695129000,-4.8671875,2.5234375,-3.587890625,-3.09765625,9.73046875,-24.61328125
7143698577000,-4.61328125,1.640625,-3.939453125,-3.37109375,9.20703125,-23.171875
7143700992000,-4.51171875,1.1953125,-4.095703125,-3.51171875,8.59375,-21.28125
7143706133000,-4.298828125,0.287109375,-4.328125,-3.54296875,8.65625,-21.2421875
7143708934000,-4.201171875,-0.158203125,-4.40625,-3.6484375,7.82421875,-19.0234375
7143711050000,-4.142578125,-0.5703125,-4.4453125,-3.59375,6.7421875,-16.3125
7143713439000,-4.095703125,-0.951171875,-4.45703125,-3.3359375,5.5078125,-13.2265625
7143715994000,-4.07421875,-1.27734375,-4.462890625,-3.0390625,4.3125,-10.01171875
7143718487000,-4.080078125,-1.58203125,-4.421875,-3.03125,4.3515625,-10.03515625
7143720972000,-4.138671875,-1.8125,-4.34375,-2.6640625,2.93359375,-7.1640625
7143725940000,-4.251953125,-2.126953125,-4.1484375,-2.6328125,3.00390625,-7.2265625
7143728794000,-4.298828125,-2.201171875,-4.03125,-2.4765625,1.484375,-4.91796875
7143730995000,-4.328125,-2.224609375,-3.90234375,-2.6328125,-0.09375,-3.1953125
7143733435000,-4.34375,-2.232421875,-3.775390625,-2.87890625,-1.890625,-1.8359375
7143735850000,-4.36328125,-2.23828125,-3.630859375,-3.046875,-3.69921875,-0.6796875
7143738427000,-4.38671875,-2.251953125,-3.48828125,-3.03125,-3.68359375,-0.7109375
7143740809000,-4.380859375,-2.265625,-3.337890625,-3.2734375,-5.5625,0.19921875
7143743386000,-4.34375,-2.298828125,-3.171875,-3.55859375,-7.3125,0.8984375
7143745961000,-4.28125,-2.31640625,-3.009765625,-3.53515625,-7.3046875,0.859375
7143748419000,-4.197265625,-2.353515625,-2.84375,-3.73828125,-8.90625,1.4453125
7143753550000,-3.95703125,-2.4453125,-2.498046875,-3.69921875,-8.890625,1.359375
7143760667000,-3.43359375,-2.6171875,-1.931640625,-3.765625,-11.9140625,2.96875
7143768312000,-2.8359375,-2.890625,-1.279296875,-3.75390625,-14.56640625,4.94140625
7143775785000,-2.1640625,-3.072265625,-0.51953125,-3.02734375,-17.1875,6.89453125
7143780596000,-1.701171875,-3.16796875,0.015625,-2.96484375,-17.21875,6.76171875
7143783425000,-1.4921875,-3.228515625,0.31640625,-2.54296875,-17.1484375,7.6015625
7143785753000,-1.234375,-3.375,0.56640625,-3.10546875,-18.26171875,8.1484375
7143788154000,-0.96484375,-3.482421875,0.787109375,-3.07421875,-18.28515625,8.078125
7143790863000,-0.6875,-3.58984375,1.025390625,-2.515625,-19.0078125,8.66015625
7143793314000,-0.40625,-3.66015625,1.248046875,-1.6796875,-19.44921875,9.55859375
7143795711000,-0.134765625,-3.728515625,1.49609375,-0.796875,-19.8515625,10.61328125
7143798456000,0.150390625,-3.744140625,1.7265625,0.32421875,-19.81640625,11.8203125
7143800893000,0.412109375,-3.724609375,1.94921875,0.36328125,-19.85546875,11.7265625
7143803262000,0.6484375,-3.658203125,2.177734375,1.23046875,-19.7578125,12.76953125
7143808240000,1.1796875,-3.455078125,2.591796875,1.29296875,-19.84375,12.59765625
7143811002000,1.44140625,-3.3203125,2.779296875,2.30859375,-19.41015625,13.59375
7143815812000,1.9296875,-2.87890625,3.138671875,3.4765625,-18.80078125,14.34375
7143818437000,2.154296875,-2.669921875,3.287109375,4.48828125,-17.84375,15.08984375
7143820745000,2.4140625,-2.455078125,3.390625,5.48046875,-16.67578125,15.875
7143823239000,2.646484375,-2.22265625,3.4921875,5.51171875,-16.73828125,15.8125
7143825678000,2.8828125,-1.98046875,3.55859375,6.4765625,-15.28515625,16.50390625
7143828250000,3.09375,-1.7109375,3.625,7.5,-13.77734375,17.0390625
7143830781000,3.33984375,-1.412109375,3.65234375,7.5078125,-13.83984375,17.0
7143833436000,3.58984375,-1.087890625,3.65234375,8.3671875,-12.5859375,16.9765625
7143835633000,3.857421875,-0.734375,3.61328125,9.21875,-11.30078125,16.390625
7143838021000,4.158203125,-0.416015625,3.517578125,9.83203125,-9.734375,15.17578125
7143843237000,4.884765625,0.2890625,3.23828125,10.0625,-8.11328125,13.27734375
7143855189000,6.59765625,1.220703125,2.138671875,9.21875,-3.4296875,6.92578125
7143862984000,7.62890625,1.42578125,1.095703125,9.33984375,-0.296875,3.4296875
7143863124000,7.892578125,1.515625,0.748046875,9.32421875,-0.265625,3.4765625
7143865553000,8.10546875,1.62890625,0.390625,9.109375,1.05859375,1.8984375
7143870483000,8.41015625,1.833984375,-0.36328125,9.0859375,1.16796875,2.0
7143873061000,8.515625,1.900390625,-0.76171875,7.40234375,2.78515625,-1.4765625
7143877949000,8.646484375,1.927734375,-1.51953125,7.37109375,2.95703125,-1.3828125
7143880532000,8.642578125,1.876953125,-1.87109375,6.31640625,3.52734375,-3.109375
7143883154000,8.59375,1.779296875,-2.185546875,5.671875,3.95703125,-4.62109375
7143885507000,8.513671875,1.6953125,-2.4375,5.65625,4.06640625,-4.58203125
7143887996000,8.37109375,1.62109375,-2.654296875,5.5625,4.46875,-5.7578125
7143890521000,8.158203125,1.578125,-2.82421875,5.64453125,4.70703125,-6.8359375
7143893131000,7.94140625,1.578125,-2.943359375,5.65625,5.04296875,-8.01953125
7143897918000,7.369140625,1.689453125,-3.078125,5.625,5.30859375,-7.97265625
7143900786000,7.01953125,1.759765625,-3.12109375,5.19921875,5.79296875,-9.1953125
7143903141000,6.6171875,1.857421875,-3.111328125,4.5625,6.29296875,-10.5859375
7143905520000,6.16015625,1.947265625,-3.10546875,3.9296875,6.66796875,-11.82421875
7143908062000,5.63671875,2.046875,-3.07421875,3.90625,6.78515625,-11.79296875
7143910563000,5.046875,2.177734375,-3.03515625,3.28125,6.9921875,-12.87109375
7143912956000,4.384765625,2.3046875,-3.009765625,2.80859375,7.16796875,-14.08984375
7143915538000,3.708984375,2.455078125,-2.94921875,2.453125,7.27734375,-15.71484375
7143917989000,2.96875,2.640625,-2.8828125,2.421875,7.37109375,-15.68359375
7143920486000,2.234375,2.818359375,-2.80078125,2.19140625,7.1875,-17.83984375
7143925459000,0.80078125,3.140625,-2.65234375,2.10546875,7.3359375,-17.72265625
7143928215000,0.125,3.298828125,-2.591796875,1.625,6.9765625,-19.88671875
7143930358000,-0.5546875,3.416015625,-2.5546875,1.00390625,6.6328125,-22.23828125
7143932958000,-1.1796875,3.521484375,-2.52734375,0.265625,6.296875,-24.57421875
7143935344000,-1.78125,3.55859375,-2.51953125,-0.7265625,5.98828125,-26.59375
7143937922000,-2.32421875,3.544921875,-2.537109375,-0.7734375,6.02734375,-26.5
7143940256000,-2.84375,3.494140625,-2.58203125,-1.97265625,5.8203125,-27.9296875
7143942908000,-3.302734375,3.404296875,-2.638671875,-3.109375,5.73046875,-28.54296875
7143945421000,-3.67578125,3.27734375,-2.72265625,-3.1640625,5.75390625,-28.44921875
7143947880000,-4.013671875,3.107421875,-2.818359375,-4.0234375,5.7109375,-28.6328125
7143952969000,-4.453125,2.60546875,-3.02734375,-4.125,5.734375,-28.453125
7143960325000,-4.77734375,1.595703125,-3.337890625,-4.58203125,5.90625,-26.7578125
7143967707000,-4.771484375,0.431640625,-3.56640625,-4.12109375,5.3828125,-23.65234375
7143975250000,-4.55859375,-0.83203125,-3.595703125,-4.578125,3.7265625,-16.74609375
7143977823000,-4.5,-1.259765625,-3.54296875,-4.4765625,2.8984375,-13.96875
7143980210000,-4.435546875,-1.6640625,-3.521484375,-4.4765625,2.9140625,-13.96875
7143982928000,-4.369140625,-2.041015625,-3.423828125,-4.09765625,2.03515625,-11.19140625
7143987694000,-4.306640625,-2.673828125,-3.2578125,-4.08203125,2.05078125,-11.22265625
7143990362000,-4.310546875,-2.89453125,-3.13671875,-3.52734375,1.2265625,-8.41796875
7143992616000,-4.30859375,-3.060546875,-3.02734375,-2.8984375,0.21875,-5.60546875
7143995178000,-4.345703125,-3.150390625,-2.91796875,-2.359375,-1.01953125,-3.0234375
7144002743000,-4.443359375,-3.142578125,-2.5234375,-2.06640625,-4.0546875,1.234375
7144010219000,-4.369140625,-2.96484375,-2.060546875,-2.51953125,-7.546875,3.66015625
7144017754000,-3.9453125,-2.78125,-1.443359375,-2.9453125,-10.14453125,5.375
7144022661000,-3.576171875,-2.708984375,-0.97265625,-2.8984375,-10.18359375,5.3046875
7144025242000,-3.39453125,-2.6953125,-0.712890625,-2.85546875,-10.87890625,6.125
7144027654000,-3.240234375,-2.6875,-0.451171875,-2.796875,-11.24609375,6.8984375
7144030114000,-3.091796875,-2.671875,-0.171875,-2.7734375,-11.27734375,6.859375
7144032596000,-2.978515625,-2.697265625,0.072265625,-2.7890625,-11.60546875,8.171875
7144035203000,-2.900390625,-2.72265625,0.326171875,-2.7578125,-11.63671875,8.1328125
7144037706000,-2.81640625,-2.75390625,0.560546875,-2.61328125,-11.7890625,8.72265625
7144042764000,-2.654296875,-2.853515625,0.99609375,-2.55078125,-11.875,8.63671875
7144045539000,-2.55859375,-2.904296875,1.193359375,-2.3671875,-12.1875,8.82421875
7144047652000,-2.412109375,-2.94921875,1.384765625,-2.12890625,-12.42578125,8.921875
7144050003000,-2.26171875,-3.01953125,1.56640625,-2.09765625,-12.48046875,8.8671875
7144052558000,-2.1171875,-3.072265625,1.740234375,-1.29296875,-12.859375,9.921875
7144055045000,-1.96875,-3.126953125,1.90625,-1.24609375,-12.9140625,9.875
7144057619000,-1.8125,-3.1875,2.099609375,-0.74609375,-12.9140625,10.37890625
7144060103000,-1.681640625,-3.216796875,2.24609375,-0.2109375,-12.76953125,10.890625
7144062604000,-1.501953125,-3.232421875,2.41796875,-0.171875,-12.83984375,10.828125
7144065160000,-1.357421875,-3.25,2.591796875,0.421875,-12.6015625,11.24609375
7144070074000,-1.04296875,-3.216796875,2.88671875,0.5,-12.7421875,11.11328125
7144072819000,-0.859375,-3.189453125,3.00390625,1.62890625,-11.9375,11.3984375
7144078005000,-0.453125,-3.10546875,3.251953125,2.2421875,-11.37890625,11.390625
7144085908000,0.171875,-2.9921875,3.4140625,3.2734375,-9.984375,11.70703125
7144097390000,1.08984375,-2.5703125,3.29296875,4.41015625,-8.68359375,12.5
7144100108000,1.322265625,-2.443359375,3.220703125,5.34375,-7.04296875,12.46484375
7144105009000,1.939453125,-2.189453125,3.044921875,5.3828125,-7.17578125,12.34765625
7144107709000,2.29296875,-2.056640625,2.943359375,5.73046875,-6.39453125,11.76953125
7144110005000,2.669921875,-1.9375,2.82421875,6.23828125,-5.64453125,11.1953125
7144112394000,3.048828125,-1.828125,2.701171875,6.90234375,-4.66015625,10.79296875
7144114870000,3.4140625,-1.73828125,2.55859375,7.71484375,-3.421875,10.44140625
7144117467000,3.744140625,-1.62109375,2.396484375,7.72265625,-3.453125,10.39453125
7144119960000,4.001953125,-1.478515625,2.265625,8.6484375,-1.73046875,10.046875
7144124911000,4.392578125,-1.21875,1.955078125,8.6640625,-1.77734375,9.9765625
7144127720000,4.572265625,-1.08203125,1.771484375,8.69140625,-0.75,9.32421875
7144129884000,4.7265625,-0.931640625,1.56640625,9.0625,0.22265625,8.2265625
7144132482000,4.88671875,-0.771484375,1.3515625,9.30859375,1.23828125,6.796875
7144135053000,5.017578125,-0.59765625,1.140625,9.35546875,2.1875,5.2890625
7144137412000,5.166015625,-0.44921875,0.923828125,9.35546875,2.1953125,5.265625
7144139952000,5.26171875,-0.330078125,0.689453125,9.05859375,2.7109375,4.0
7144142420000,5.361328125,-0.23046875,0.4140625,8.88671875,3.30859375,2.68359375
7144144922000,5.419921875,-0.11328125,0.13671875,8.88671875,3.33203125,2.67578125
7144147397000,5.451171875,0.0,-0.19921875,8.72265625,3.85546875,1.23828125
7144152293000,5.478515625,0.267578125,-0.921875,8.72265625,3.94140625,1.22265625
7144159846000,5.5703125,0.681640625,-2.134765625,7.80078125,4.96875,-2.44140625
7144167295000,5.744140625,0.62109375,-3.353515625,5.72265625,6.16796875,-6.19921875
7144174734000,5.798828125,0.251953125,-4.46875,3.3515625,5.10546875,-10.96484375
7144177221000,5.7109375,0.103515625,-4.798828125,2.68359375,3.50390625,-12.09765625
7144179805000,5.5625,-0.025390625,-5.1015625,2.66796875,3.65234375,-12.12109375
7144182293000,5.328125,-0.126953125,-5.3671875,1.953125,1.578125,-13.203125
7144187375000,4.681640625,-0.255859375,-5.716796875,1.90625,1.890625,-13.2578125
7144189641000,4.267578125,-0.322265625,-5.78125,0.8984375,-0.38671875,-14.04296875
7144192269000,3.7890625,-0.38671875,-5.779296875,-0.30859375,-2.90234375,-14.16015625
7144194874000,3.271484375,-0.458984375,-5.681640625,-1.51953125,-5.734375,-14.23046875
7144202280000,1.646484375,-0.646484375,-4.91796875,-3.8515625,-12.2890625,-14.27734375
7144209658000,0.138671875,-0.931640625,-3.375,-5.65234375,-19.0625,-13.32421875
7144217374000,-0.970703125,-1.359375,-1.251953125,-6.44921875,-23.9140625,-11.74609375
7144221979000,-1.3203125,-1.666015625,0.267578125,-6.44921875,-23.8984375,-11.79296875
7144224579000,-1.392578125,-1.83984375,1.02734375,-6.39453125,-25.0546875,-10.359375
7144227174000,-1.390625,-2.001953125,1.763671875,-5.9296875,-25.37109375,-8.67578125
7144229629000,-1.3125,-2.154296875,2.447265625,-5.90625,-25.41796875,-8.71484375
7144232282000,-1.205078125,-2.279296875,3.11328125,-4.08203125,-23.609375,-4.828125
7144234769000,-1.0390625,-2.388671875,3.748046875,-4.04296875,-23.6953125,-4.875
7144237192000,-0.8515625,-2.427734375,4.337890625,-2.81640625,-21.9140625,-2.921875
7144242044000,-0.515625,-2.369140625,5.34765625,-2.72265625,-22.140625,-3.0234375
7144244965000,-0.345703125,-2.28125,5.693359375,-1.75390625,-20.296875,-1.23828125
7144247106000,-0.1640625,-2.158203125,5.998046875,-0.82421875,-18.69921875,0.11328125
7144249662000,0.015625,-1.986328125,6.20703125,0.27734375,-16.77734375,1.21484375
7144252007000,0.158203125,-1.7734375,6.392578125,0.95703125,-14.82421875,2.0859375
7144254532000,0.28125,-1.568359375,6.5390625,0.99609375,-14.98828125,2.046875
7144256975000,0.3671875,-1.390625,6.66015625,1.7265625,-13.01171875,2.59375
7144264613000,0.36328125,-0.904296875,7.017578125,3.16015625,-9.85546875,2.9765625
7144269667000,0.2890625,-0.650390625,7.291015625,3.74609375,-8.84375,3.04296875
7144279588000,0.125,-0.33203125,7.896484375,5.91796875,-6.31640625,2.71875
7144284516000,0.0078125,-0.2734375,8.212890625,6.546875,-5.5390625,2.26171875
7144286989000,-0.0625,-0.26171875,8.396484375,6.9296875,-4.05859375,1.6875
7144289568000,-0.1015625,-0.255859375,8.546875,6.9140625,-4.27734375,1.6796875
7144293404000,-0.181640625,-0.291015625,8.705078125,7.2890625,-2.0390625,1.3046875
7144296844000,-0.359375,-0.43359375,9.001953125,7.2421875,-2.46875,1.28125
7144301025000,-0.44921875,-0.537109375,9.138671875,8.453125,2.54296875,1.0
7144308860000,-0.55078125,-0.841796875,9.328125,9.6015625,7.203125,-0.3671875
7144316686000,-0.396484375,-1.244140625,9.056640625,9.37890625,11.77734375,-1.421875
7144320574000,-0.150390625,-1.6015625,8.578125,9.47265625,13.46875,-1.484375
7144324313000,0.1171875,-1.95703125,7.95703125,9.34765625,13.09375,-1.5703125
7144327028000,0.2265625,-2.0703125,7.578125,10.29296875,15.34765625,-0.83984375
7144329570000,0.3515625,-2.177734375,7.15234375,10.7890625,17.65625,0.01171875
7144331855000,0.48046875,-2.296875,6.703125,11.14453125,19.5859375,0.64453125
7144334578000,0.546875,-2.337890625,6.306640625,13.79296875,21.97265625,2.3125
7144339375000,0.552734375,-2.111328125,5.458984375,13.59375,23.48046875,2.97265625
7144346854000,0.552734375,-1.705078125,3.818359375,14.55859375,25.703125,4.3203125
7144354383000,0.22265625,-0.998046875,1.900390625,13.7734375,26.72265625,4.96875
7144359291000,0.037109375,-0.548828125,0.384765625,13.75,26.68359375,4.9375
7144361702000,-0.095703125,-0.3359375,-0.388671875,13.29296875,26.578125,5.63671875
7144364381000,-0.2109375,-0.150390625,-1.138671875,13.30078125,26.5859375,5.62890625
7144366766000,-0.3359375,0.03515625,-1.845703125,13.78515625,26.078125,5.9765625
7144369324000,-0.455078125,0.21484375,-2.47265625,14.25,25.11328125,6.2265625
7144374282000,-0.689453125,0.640625,-3.564453125,14.328125,25.24609375,6.2421875
7144376819000,-0.80859375,0.87890625,-4.060546875,14.43359375,23.9453125,6.5
7144379333000,-0.896484375,1.119140625,-4.541015625,14.27734375,22.38671875,6.36328125
7144381843000,-0.974609375,1.37109375,-4.96484375,14.33203125,22.49609375,6.37890625
7144384227000,-1.0078125,1.615234375,-5.3671875,14.2734375,20.81640625,5.80859375
7144386798000,-1.052734375,1.89453125,-5.736328125,14.3359375,20.94140625,5.83984375
7144389238000,-1.072265625,2.14453125,-6.099609375,14.16015625,19.1640625,5.15234375
7144391855000,-1.119140625,2.40625,-6.42578125,13.6484375,17.21484375,4.50390625
7144394300000,-1.171875,2.654296875,-6.736328125,13.0703125,15.41015625,3.88671875
7144401717000,-1.388671875,3.34765625,-7.525390625,11.66015625,11.9296875,2.546875
7144409207000,-1.525390625,3.880859375,-8.11328125,10.16796875,8.3125,0.46875
7144416847000,-1.443359375,4.1953125,-8.443359375,8.16796875,3.2890625,-3.35546875
7144421594000,-1.29296875,4.205078125,-8.57421875,8.23046875,3.6796875,-3.16796875
7144424248000,-1.21875,4.091796875,-8.57421875,6.30078125,0.7109375,-5.1328125
7144426756000,-1.130859375,3.916015625,-8.53125,4.11328125,-2.046875,-7.00390625
7144429112000,-0.990234375,3.712890625,-8.4609375,4.12890625,-1.859375,-6.92578125
7144431741000,-0.80078125,3.46875,-8.3828125,0.6484375,-8.24609375,-11.65625
7144434167000,-0.564453125,3.20703125,-8.275390625,0.65625,-8.05078125,-11.578125
7144436681000,-0.25,2.921875,-8.16796875,-1.23828125,-11.51171875,-13.671875
7144441573000,0.357421875,2.201171875,-7.939453125,-1.23828125,-11.12890625,-13.5390625
7144444428000,0.634765625,1.767578125,-7.78515625,-3.421875,-14.22265625,-14.82421875
7144446524000,0.890625,1.33203125,-7.603515625,-5.8046875,-17.19140625,-15.51171875
7144449107000,1.134765625,0.875,-7.39453125,-8.1640625,-20.13671875,-15.66796875
7144451497000,1.3359375,0.392578125,-7.15625,-10.19140625,-22.6640625,-15.078125
7144454095000,1.5,-0.083984375,-6.87109375,-10.19921875,-22.4921875,-15.0703125
7144456722000,1.634765625,-0.5546875,-6.517578125,-11.26953125,-24.83203125,-13.7578125
7144464095000,1.6953125,-1.720703125,-5.03515625,-11.26171875,-28.578125,-10.10546875
7144469143000,1.533203125,-2.10546875,-3.673828125,-10.8203125,-29.9765625,-7.96484375
7144480883000,0.89453125,-2.650390625,-0.375,-8.55859375,-31.3203125,-2.96875
7144483902000,0.53515625,-2.6484375,1.37890625,-7.421875,-30.64453125,-1.46484375
7144486514000,0.33984375,-2.591796875,2.19921875,-6.18359375,-29.4296875,-0.171875
7144489105000,0.138671875,-2.521484375,3.015625,-6.16796875,-29.484375,-0.2265625
7144492672000,-0.052734375,-2.447265625,3.798828125,-5.078125,-27.64453125,0.5625
7144496397000,-0.36328125,-2.302734375,5.169921875,-5.0234375,-27.85546875,0.453125
7144498994000,-0.47265625,-2.255859375,5.76171875,-4.08203125,-25.6953125,0.72265625
7144501570000,-0.552734375,-2.22265625,6.28125,-3.16796875,-23.46875,0.8125
7144503987000,-0.62890625,-2.2265625,6.74609375,-2.13671875,-21.203125,0.94921875
7144506543000,-0.68359375,-2.244140625,7.140625,-2.12109375,-21.3671875,0.90234375
7144509084000,-0.728515625,-2.26953125,7.484375,-1.109375,-19.16015625,1.0390625
7144511363000,-0.736328125,-2.333984375,7.7734375,-0.078125,-16.8984375,1.328125
7144513879000,-0.73046875,-2.41015625,8.041015625,0.88671875,-14.61328125,1.70703125
7144516419000,-0.712890625,-2.482421875,8.27734375,0.89453125,-14.80859375,1.65234375
7144518930000,-0.638671875,-2.57421875,8.474609375,1.91796875,-12.63671875,2.17578125
7144521472000,-0.583984375,-2.677734375,8.640625,2.953125,-10.59375,2.76171875
7144523972000,-0.501953125,-2.77734375,8.7734375,2.953125,-10.796875,2.69921875
7144526531000,-0.38671875,-2.865234375,8.876953125,4.09765625,-8.71484375,3.015625
7144531334000,-0.146484375,-2.9765625,9.005859375,4.05078125,-9.14453125,2.8828125
7144538930000,0.048828125,-2.912109375,9.01171875,6.69140625,-5.29296875,3.640625
7144546409000,-0.240234375,-2.498046875,8.8203125,8.96875,-1.64453125,5.23828125
7144553873000,-0.73046875,-1.732421875,8.453125,11.76953125,4.2578125,7.0
7144558851000,-0.875,-1.1015625,8.025390625,11.62890625,3.8828125,6.921875
7144561480000,-0.869140625,-0.779296875,7.765625,12.4375,5.6953125,6.7265625
7144563742000,-0.802734375,-0.46875,7.412109375,12.875,7.62109375,6.26953125
7144566390000,-0.7109375,-0.146484375,7.044921875,12.796875,7.46484375,6.25390625
7144568954000,-0.587890625,0.1015625,6.615234375,12.86328125,9.55859375,5.77734375
7144571448000,-0.421875,0.28125,6.11328125,12.3125,11.20703125,5.04296875
7144573777000,-0.189453125,0.455078125,5.55078125,12.078125,12.84765625,3.96875
7144581293000,0.607421875,0.865234375,3.71875,11.1640625,15.73828125,2.77734375
7144586346000,1.166015625,0.86328125,2.185546875,10.26171875,16.2578125,2.62890625
7144598202000,2.3203125,0.70703125,-1.0,11.5390625,19.3203125,2.25
7144601089000,2.865234375,0.552734375,-2.609375,11.5859375,19.3828125,2.3359375
7144603656000,3.0703125,0.466796875,-3.41015625,11.88671875,19.83984375,2.56640625
7144606195000,3.259765625,0.39453125,-4.2265625,12.0390625,20.03125,3.42578125
7144608676000,3.412109375,0.35546875,-5.046875,12.0859375,20.125,3.47265625
7144611208000,3.544921875,0.349609375,-5.853515625,12.27734375,20.0,4.19921875
7144613695000,3.654296875,0.36328125,-6.634765625,12.6640625,19.69140625,4.7890625
7144616134000,3.79296875,0.4296875,-7.4296875,13.51171875,19.28515625,5.0859375
7144621141000,4.021484375,0.6015625,-8.802734375,13.67578125,19.64453125,5.1875
7144623983000,4.111328125,0.70703125,-9.37890625,14.5703125,18.984375,5.35546875
7144626117000,4.185546875,0.80078125,-9.89453125,14.96875,17.7265625,5.59765625
7144628643000,4.265625,0.875,-10.357421875,15.0546875,17.9609375,5.66015625
7144631197000,4.306640625,0.9453125,-10.75390625,14.36328125,13.7265625,5.1015625
7144633539000,4.3359375,1.0234375,-11.068359375,14.43359375,13.9765625,5.15625
7144636229000,4.353515625,1.095703125,-11.3046875,13.66015625,11.47265625,4.203125
7144641023000,4.365234375,1.220703125,-11.564453125,13.77734375,12.02734375,4.296875
7144643939000,4.318359375,1.267578125,-11.5859375,12.90234375,9.08203125,2.734375
7144646113000,4.330078125,1.328125,-11.54296875,11.83203125,5.8359375,0.578125
7144648496000,4.302734375,1.396484375,-11.439453125,10.234375,2.7578125,-1.78515625
7144651070000,4.275390625,1.46484375,-11.30078125,8.0,-0.66015625,-3.921875
7144653523000,4.19140625,1.53125,-11.111328125,8.015625,-0.39453125,-3.8828125
7144656101000,4.0546875,1.578125,-10.88671875,5.21875,-4.08203125,-6.078125
7144658569000,3.8359375,1.58203125,-10.5625,2.18359375,-7.7421875,-8.15625
7144661113000,3.548828125,1.5546875,-10.208984375,2.17578125,-7.4921875,-8.125
7144663687000,3.208984375,1.53515625,-9.75,-0.92578125,-11.31640625,-10.12109375
7144668522000,2.42578125,1.47265625,-8.615234375,-0.97265625,-10.86328125,-10.04296875
7144671323000,2.015625,1.4140625,-7.919921875,-6.91015625,-18.6328125,-14.38671875
7144676146000,1.138671875,1.263671875,-6.341796875,-6.95703125,-18.3046875,-14.33203125
7144678381000,0.626953125,1.134765625,-5.451171875,-9.3828125,-21.21875,-15.56640625
7144681012000,0.078125,0.931640625,-4.517578125,-11.55078125,-22.77734375,-15.68359375
7144683543000,-0.50390625,0.703125,-3.54296875,-11.56640625,-22.67578125,-15.66796875
7144686065000,-1.091796875,0.45703125,-2.54296875,-12.64453125,-23.10546875,-15.26171875
7144688565000,-1.685546875,0.212890625,-1.537109375,-12.6796875,-22.54296875,-14.80859375
7144690948000,-2.27734375,-0.04296875,-0.515625,-11.80859375,-21.44140625,-14.12109375
7144696003000,-3.41015625,-0.609375,1.4375,-11.80859375,-21.48828125,-14.10546875
7144699821000,-3.955078125,-0.890625,2.353515625,-9.6875,-17.45703125,-11.03125
7144706031000,-5.2421875,-1.603515625,4.484375,-8.5,-12.92578125,-7.30859375
7144715587000,-5.99609375,-2.16796875,5.7109375,-6.23828125,-9.6796875,-4.32421875
7144718408000,-6.173828125,-2.53515625,6.138671875,-5.1171875,-8.69921875,-2.9375
7144721037000,-6.171875,-2.67578125,6.2578125,-4.1015625,-7.84765625,-1.6796875
7144723269000,-6.1171875,-2.830078125,6.3203125,-4.0859375,-8.01171875,-1.734375
7144725950000,-6.0078125,-2.943359375,6.353515625,-3.3125,-7.4453125,-0.45703125
7144730920000,-5.693359375,-3.125,6.259765625,-2.67578125,-7.140625,0.66796875
7144733352000,-5.46875,-3.19921875,6.193359375,-2.0625,-6.73828125,1.79296875
7144735914000,-5.224609375,-3.275390625,6.095703125,-2.0625,-6.89453125,1.71484375
7144738353000,-4.9765625,-3.337890625,5.9921875,-1.31640625,-6.44921875,2.72265625
7144741043000,-4.671875,-3.3984375,5.859375,-0.50390625,-5.9765625,3.52734375
7144743339000,-4.35546875,-3.4375,5.724609375,-0.50390625,-6.1171875,3.44140625
7144745868000,-4.0390625,-3.46484375,5.56640625,0.2734375,-5.73828125,4.34375
7144748377000,-3.712890625,-3.4921875,5.435546875,1.1484375,-5.3125,5.1796875
7144753323000,-3.107421875,-3.505859375,5.12890625,1.125,-5.5703125,4.9921875
7144758293000,-2.55078125,-3.48828125,4.8125,2.8984375,-4.69140625,6.90234375
7144765790000,-1.845703125,-3.318359375,4.408203125,5.265625,-3.51953125,9.03125
7144773316000,-1.23046875,-2.84765625,4.017578125,7.88671875,-1.7734375,11.34765625
7144778102000,-1.037109375,-2.630859375,3.869140625,9.03515625,-0.546875,12.43359375
7144780913000,-0.6484375,-2.091796875,3.494140625,9.9375,0.74609375,13.06640625
7144785849000,-0.15625,-1.43359375,2.978515625,9.890625,0.59765625,12.98046875
7144788639000,0.12109375,-1.091796875,2.634765625,10.4921875,2.24609375,13.2109375
7144790969000,0.416015625,-0.76171875,2.23046875,10.703125,3.73046875,13.0703125
7144793155000,0.734375,-0.470703125,1.765625,10.62890625,5.08203125,12.796875
7144795940000,1.0390625,-0.220703125,1.26953125,10.61328125,6.41015625,12.53515625
7144798223000,1.380859375,0.001953125,0.72265625,10.60546875,6.37890625,12.54296875
7144800761000,1.7265625,0.208984375,0.16796875,10.8046875,7.79296875,12.07421875
7144803309000,2.095703125,0.40234375,-0.4375,11.015625,9.09375,11.55859375
7144805630000,2.47265625,0.568359375,-1.0546875,11.0234375,9.109375,11.58984375
7144808312000,2.853515625,0.72265625,-1.697265625,11.28125,9.9765625,10.80078125
7144813061000,3.591796875,0.927734375,-3.087890625,11.3125,10.078125,10.87890625
7144815870000,3.931640625,1.01171875,-3.794921875,11.4140625,10.4921875,9.9765625
7144818118000,4.177734375,1.10546875,-4.48828125,11.93359375,11.2109375,9.5546875
7144820671000,4.345703125,1.1796875,-5.154296875,11.96484375,11.328125,9.609375
7144823261000,4.41796875,1.25,-5.814453125,11.9765625,11.6171875,9.5390625
7144825699000,4.427734375,1.34375,-6.43359375,11.921875,11.48046875,9.55859375
7144828192000,4.365234375,1.45703125,-6.9921875,11.9609375,11.63671875,9.61328125
7144830769000,4.2109375,1.609375,-7.455078125,12.2578125,10.3046875,9.234375
7144833098000,4.017578125,1.76953125,-7.83203125,12.2890625,10.4765625,9.2890625
7144835735000,3.7421875,1.935546875,-8.095703125,12.85546875,9.24609375,8.52734375
7144840637000,3.150390625,2.32421875,-8.3515625,12.90234375,9.62890625,8.64453125
7144843461000,2.859375,2.5390625,-8.388671875,13.4921875,8.0859375,7.31640625
7144845618000,2.568359375,2.75,-8.3671875,13.4296875,6.2109375,5.64453125
7144848188000,2.314453125,2.958984375,-8.32421875,12.59375,4.3671875,3.953125
7144850543000,2.068359375,3.126953125,-8.267578125,11.34765625,2.359375,2.27734375
7144853081000,1.826171875,3.267578125,-8.166015625,11.35546875,2.5703125,2.34765625
7144855579000,1.556640625,3.33984375,-7.990234375,9.828125,0.34375,0.51953125
7144858036000,1.2578125,3.39453125,-7.80859375,8.41015625,-2.10546875,-1.890625
7144860595000,0.998046875,3.45703125,-7.59375,8.40234375,-1.91015625,-1.8046875
7144863041000,0.728515625,3.484375,-7.33984375,6.76953125,-4.8203125,-5.078125
7144868226000,0.390625,3.548828125,-6.755859375,6.72265625,-4.4765625,-4.90625
7144870857000,0.30078125,3.537109375,-6.435546875,1.4609375,-11.234375,-11.625
7144878281000,0.09765625,3.060546875,-5.201171875,-1.65234375,-13.83203125,-13.515625
7144883758000,-0.021484375,2.53515625,-4.23828125,-7.76953125,-18.91796875,-15.390625
7144895417000,-0.19140625,1.068359375,-2.046875,-11.234375,-22.58984375,-14.234375
7144898040000,-0.310546875,0.376953125,-0.814453125,-11.1796875,-23.2265625,-12.73046875
7144903021000,-0.435546875,-0.3125,0.400390625,-11.1875,-23.21875,-12.72265625
7144905624000,-0.513671875,-0.646484375,1.013671875,-10.76953125,-23.703125,-10.984375
7144908006000,-0.552734375,-0.939453125,1.62109375,-9.94921875,-23.7734375,-9.06640625
7144910546000,-0.62109375,-1.171875,2.23046875,-8.8984375,-23.45703125,-6.734375
7144912759000,-0.671875,-1.333984375,2.828125,-7.59765625,-22.72265625,-4.2578125
7144915398000,-0.75,-1.4296875,3.40625,-7.57421875,-22.79296875,-4.2890625
7144917938000,-0.82421875,-1.466796875,3.974609375,-5.94140625,-21.8828125,-1.9375
7144920457000,-0.923828125,-1.45703125,4.515625,-4.1953125,-20.75,0.20703125
7144923012000,-1.01953125,-1.392578125,5.0390625,-4.1640625,-20.875,0.17578125
7144925309000,-1.146484375,-1.2890625,5.529296875,-2.4375,-19.4609375,2.0
7144930481000,-1.36328125,-1.025390625,6.427734375,-2.390625,-19.765625,1.953125
7144937929000,-1.556640625,-0.517578125,7.591796875,0.69921875,-16.69921875,4.25390625
7144945263000,-1.529296875,0.00390625,8.435546875,3.265625,-13.27734375,5.51171875
7144952826000,-1.3359375,0.5625,8.90625,6.765625,-6.96875,5.75390625
7144957840000,-1.21875,0.87890625,9.06640625,6.734375,-7.421875,5.77734375
7144960332000,-1.1640625,0.994140625,9.078125,7.62890625,-5.08984375,5.5625
7144962872000,-1.12890625,1.091796875,9.091796875,8.43359375,-2.75390625,5.26953125
7144965499000,-1.087890625,1.177734375,9.037109375,9.24609375,-0.40234375,4.765625
7144967843000,-1.07421875,1.275390625,8.982421875,9.21484375,-0.61328125,4.78125
7144970386000,-1.029296875,1.341796875,8.880859375,9.703125,1.79296875,4.09375
7144972744000,-1.005859375,1.400390625,8.759765625,10.0703125,4.3671875,3.3125
7144980271000,-0.8359375,1.453125,8.1796875,10.203125,9.921875,0.9140625
7144987745000,-0.45703125,1.349609375,7.19921875,10.17578125,12.3828125,-0.0390625
7144995515000,-0.12109375,1.1171875,5.755859375,10.21875,19.08984375,-1.0234375
7145000275000,0.18359375,0.90234375,4.529296875,9.9375,20.8828125,-1.45703125
7145002843000,0.3671875,0.810546875,3.87890625,9.74609375,22.58203125,-1.7109375
7145005266000,0.568359375,0.68359375,3.19140625,9.71484375,22.50390625,-1.6875
7145007773000,0.791015625,0.5703125,2.494140625,9.484375,24.01171875,-1.7109375
7145012566000,1.234375,0.2265625,1.083984375,9.453125,23.94921875,-1.671875
7145015362000,1.4453125,0.0703125,0.365234375,9.57421875,25.3125,-1.4453125
7145017822000,1.62109375,-0.091796875,-0.322265625,9.83984375,26.46875,-0.80859375
7145020081000,1.77734375,-0.24609375,-1.041015625,9.84765625,26.484375,-0.80078125
7145022753000,1.8984375,-0.37890625,-1.736328125,10.07421875,27.203125,0.01953125
7145025155000,1.984375,-0.48828125,-2.41796875,10.3359375,27.4609375,1.29296875
7145027657000,1.98046875,-0.560546875,-3.0859375,10.3671875,27.53125,1.30078125
7145030154000,1.953125,-0.5703125,-3.74609375,11.25390625,26.5078125,4.0390625
7145032624000,1.8671875,-0.51171875,-4.361328125,11.30078125,26.609375,4.0546875
7145035136000,1.76953125,-0.41015625,-4.94921875,11.86328125,25.48046875,4.90625
7145040218000,1.490234375,-0.07421875,-6.005859375,11.95703125,25.73828125,4.9296875
7145042961000,1.34375,0.1171875,-6.443359375,12.48046875,24.19921875,5.453125
7145045088000,1.1796875,0.341796875,-6.82421875,12.8046875,22.24609375,5.5
7145047655000,1.044921875,0.552734375,-7.169921875,12.90625,20.08203125,5.08984375
7145050186000,0.86328125,0.74609375,-7.419921875,12.76953125,17.79296875,4.375
7145052471000,0.70703125,0.927734375,-7.658203125,12.81640625,17.95703125,4.3984375
7145055050000,0.53515625,1.072265625,-7.814453125,12.30859375,15.609375,3.55078125
7145057705000,0.353515625,1.193359375,-7.958984375,11.62890625,13.3125,2.3515625
7145060070000,0.1796875,1.275390625,-8.052734375,11.66796875,13.4921875,2.3828125
7145062546000,0.03125,1.341796875,-8.134765625,10.9296875,11.015625,0.9296875
7145065069000,-0.109375,1.3828125,-8.185546875,10.16796875,8.1875,-0.62890625
7145067481000,-0.201171875,1.42578125,-8.224609375,10.19921875,8.3828125,-0.58984375
7145071538000,-0.28125,1.431640625,-8.255859375,9.3828125,5.25390625,-2.1796875
7145077791000,-0.333984375,1.388671875,-8.3359375,6.62890625,-1.37109375,-6.30078125
7145087198000,-0.103515625,1.072265625,-8.296875,2.578125,-9.171875,-11.90234375
7145094941000,0.5,0.34375,-8.126953125,-2.859375,-16.9921875,-14.75
7145098809000,0.91796875,-0.3984375,-7.884765625,-5.66796875,-19.95703125,-14.328125
7145102563000,1.212890625,-1.291015625,-7.44140625,-5.68359375,-19.58984375,-14.375
7145105152000,1.314453125,-1.796875,-7.146484375,-7.94140625,-22.44921875,-13.0546875
7145107471000,1.408203125,-2.28515625,-6.78515625,-9.43359375,-25.328125,-10.9921875
7145110117000,1.4453125,-2.76953125,-6.353515625,-9.49609375,-26.890625,-7.94921875
7145112451000,1.42578125,-3.197265625,-5.81640625,-9.73046875,-29.19140625,-4.8671875
7145118357000,1.41796875,-3.892578125,-4.634765625,-8.6953125,-30.91796875,-2.0625
7145124810000,1.349609375,-4.140625,-2.5625,-6.44921875,-33.44921875,4.17578125
7145133954000,1.046875,-3.45703125,-0.509765625,-4.84375,-34.09765625,9.0234375
7145137339000,0.828125,-2.685546875,0.767578125,-4.078125,-33.70703125,10.17578125
7145140080000,0.7421875,-2.212890625,1.376953125,-3.171875,-32.7421875,10.8984375
7145142426000,0.646484375,-1.716796875,1.947265625,-3.1640625,-32.78125,10.84375
7145144687000,0.583984375,-1.2421875,2.47265625,-2.3359375,-31.53515625,10.94921875
7145147389000,0.529296875,-0.798828125,2.9765625,-1.61328125,-29.80859375,10.58984375
7145152311000,0.41015625,-0.033203125,3.833984375,-1.58203125,-29.97265625,10.56640625
7145154892000,0.345703125,0.28125,4.228515625,-1.1484375,-27.9375,9.9921875
7145157506000,0.244140625,0.55078125,4.615234375,-0.625,-25.953125,9.17578125
7145160178000,0.15234375,0.80078125,4.96875,-0.6015625,-26.078125,9.19140625
7145162329000,0.041015625,1.037109375,5.33203125,0.20703125,-24.26171875,8.26953125
7145164763000,-0.06640625,1.25390625,5.701171875,1.34375,-22.375,7.24609375
7145167322000,-0.1796875,1.439453125,6.080078125,1.3671875,-22.5234375,7.27734375
7145170042000,-0.3046875,1.609375,6.42578125,2.53125,-20.3046875,6.0546875
7145172161000,-0.40625,1.791015625,6.783203125,3.6796875,-17.49609375,4.6484375
7145179769000,-0.638671875,2.142578125,7.703125,5.171875,-11.4765625,1.8359375
7145187311000,-0.78125,2.15625,8.24609375,5.9140625,-8.61328125,0.79296875
7145196592000,-0.904296875,1.94921875,8.4296875,8.74609375,1.0625,-1.625
7145199743000,-0.90234375,1.765625,8.390625,9.8203125,4.1640625,-2.1015625
7145202217000,-0.91015625,1.666015625,8.3125,11.03515625,7.484375,-2.51171875
7145204709000,-0.859375,1.5859375,8.205078125,10.99609375,7.2890625,-2.47265625
7145207278000,-0.810546875,1.505859375,8.06640625,12.21875,10.7890625,-2.82421875
7145212257000,-0.732421875,1.37109375,7.7109375,12.1328125,10.4140625,-2.75390625
7145219682000,-0.607421875,1.02734375,6.849609375,13.5234375,16.7109375,-2.42578125
7145223881000,-0.603515625,0.97265625,6.525390625,15.33203125,22.96875,-1.26171875
7145234866000,-0.333984375,0.298828125,4.458984375,15.69140625,30.0859375,-0.765625
7145239697000,-0.15625,-0.1015625,3.470703125,15.62890625,29.90625,-0.765625
7145242118000,-0.08984375,-0.255859375,2.916015625,16.48046875,31.88671875,-0.265625
7145244472000,-0.04296875,-0.369140625,2.353515625,17.18359375,33.59375,0.43359375
7145247241000,-0.05078125,-0.458984375,1.7578125,17.6484375,35.0234375,1.3359375
7145249437000,-0.05078125,-0.482421875,1.126953125,17.5546875,35.91796875,2.71875
7145252147000,-0.087890625,-0.490234375,0.48828125,17.5546875,35.89453125,2.703125
7145254601000,-0.16015625,-0.46875,-0.197265625,17.19921875,36.13671875,4.33203125
7145257065000,-0.23046875,-0.427734375,-0.93359375,17.3046875,35.7421875,5.734375
7145259586000,-0.36328125,-0.337890625,-1.6640625,17.3125,35.765625,5.7265625
7145261867000,-0.46875,-0.20703125,-2.40625,17.8828125,34.60546875,6.734375
7145264570000,-0.60546875,-0.025390625,-3.123046875,18.5859375,32.53125,6.859375
7145267129000,-0.73046875,0.21484375,-3.822265625,18.609375,32.6015625,6.859375
7145271224000,-0.8359375,0.478515625,-4.5,19.15625,29.8359375,6.27734375
7145274556000,-0.943359375,1.025390625,-5.689453125,19.2421875,30.0625,6.30078125
7145276935000,-0.955078125,1.265625,-6.189453125,19.13671875,26.74609375,4.86328125
7145279557000,-0.896484375,1.484375,-6.626953125,18.23828125,22.80859375,2.6640625
7145282096000,-0.765625,1.619140625,-7.02734375,18.27734375,22.97265625,2.6953125
7145284420000,-0.615234375,1.6875,-7.39453125,16.4375,18.703125,-0.015625
7145287021000,-0.41015625,1.705078125,-7.7109375,14.1015625,14.5390625,-2.921875
7145289487000,-0.193359375,1.642578125,-7.978515625,11.5234375,10.640625,-5.55859375
7145291916000,0.01953125,1.521484375,-8.197265625,8.96875,6.8984375,-7.57421875
7145298281000,0.357421875,1.083984375,-8.466796875,6.74609375,3.453125,-8.68359375
7145306067000,0.6953125,0.162109375,-8.517578125,2.89453125,-3.62890625,-9.37109375
7145314055000,0.798828125,-0.787109375,-8.064453125,-0.515625,-10.125,-8.91796875
7145316925000,0.728515625,-1.333984375,-7.533203125,-2.12890625,-13.2734375,-8.5703125
7145319478000,0.6953125,-1.58984375,-7.21875,-3.55078125,-16.5703125,-8.09375
7145321974000,0.642578125,-1.8359375,-6.892578125,-3.54296875,-16.4140625,-8.140625
7145324326000,0.54296875,-2.05859375,-6.564453125,-4.98828125,-19.7578125,-7.40625
7145329386000,0.3125,-2.392578125,-5.88671875,-6.41796875,-22.79296875,-6.38671875
7145336911000,-0.16015625,-2.650390625,-4.796875,-7.74609375,-25.38671875,-4.88671875
7145344436000,-0.55859375,-2.443359375,-3.60546875,-9.1015625,-30.0703125,-0.95703125
7145351914000,-0.650390625,-1.826171875,-2.22265625,-9.234375,-34.1484375,4.12109375
7145356765000,-0.53515625,-1.486328125,-1.31640625,-9.2421875,-34.0625,4.05078125
7145359434000,-0.373046875,-1.287109375,-0.91796875,-9.72265625,-35.6875,4.82421875
7145361728000,-0.146484375,-1.107421875,-0.53515625,-9.9140625,-36.55078125,5.3671875
7145364316000,0.10546875,-0.919921875,-0.20703125,-9.9609375,-36.640625,5.7578125
7145366661000,0.34765625,-0.72265625,0.15234375,-9.953125,-36.6328125,5.734375
7145369269000,0.560546875,-0.525390625,0.50390625,-9.51171875,-35.94140625,6.26171875
7145371923000,0.73046875,-0.359375,0.857421875,-9.015625,-34.921875,6.66796875
7145374234000,0.83984375,-0.20703125,1.22265625,-8.44140625,-33.8359375,6.625
7145376867000,0.9140625,-0.08984375,1.576171875,-8.43359375,-33.875,6.6171875
7145379362000,0.9609375,0.015625,1.92578125,-7.95703125,-32.5625,6.1953125
7145384289000,1.046875,0.162109375,2.595703125,-7.93359375,-32.6640625,6.1953125
7145387056000,1.0703125,0.21484375,2.923828125,-7.328125,-31.17578125,5.75390625
7145391853000,1.0703125,0.26171875,3.578125,-6.3671875,-29.74609375,5.12109375
7145394691000,1.0546875,0.287109375,3.9140625,-5.14453125,-28.0390625,4.59375
7145396848000,0.990234375,0.30078125,4.22265625,-3.8359375,-26.1328125,4.171875
7145399117000,0.919921875,0.3359375,4.564453125,-3.8203125,-26.2265625,4.1796875
7145401704000,0.8203125,0.384765625,4.87109375,-2.41015625,-24.2578125,4.0625
7145404072000,0.703125,0.482421875,5.16015625,-0.875,-22.2578125,3.96484375
7145406595000,0.591796875,0.587890625,5.462890625,-0.8671875,-22.390625,3.97265625
7145409261000,0.49609375,0.72265625,5.751953125,0.76953125,-20.1953125,3.65234375
7145411691000,0.412109375,0.8671875,6.015625,2.703125,-17.5625,3.08203125
7145414236000,0.3359375,1.01953125,6.240234375,3.6328125,-14.6171875,2.24609375
7145419219000,0.244140625,1.234375,6.66796875,5.51171875,-11.5390625,1.11328125
7145431169000,0.12890625,1.490234375,7.181640625,8.765625,-0.89453125,-1.78125
7145435236000,0.115234375,1.484375,7.3359375,9.93359375,2.74609375,-2.58203125
7145439415000,0.09765625,1.396484375,7.4375,10.7421875,6.1953125,-3.14453125
7145441646000,0.068359375,1.32421875,7.40625,11.62890625,10.10546875,-3.57421875
7145446658000,0.037109375,1.111328125,7.201171875,11.55859375,9.76953125,-3.50390625
7145449395000,0.03125,1.021484375,7.05078125,14.05859375,17.7890625,-3.6875
7145454199000,-0.044921875,0.845703125,6.654296875,15.33203125,21.66015625,-3.19921875
7145456576000,-0.09765625,0.759765625,6.40625,16.30078125,25.5234375,-2.640625
7145459091000,-0.1796875,0.693359375,6.142578125,16.26171875,25.375,-2.625
7145461472000,-0.251953125,0.611328125,5.8203125,17.05859375,28.87109375,-2.1015625
7145463990000,-0.326171875,0.517578125,5.46484375,18.57421875,32.54296875,-1.3828125
7145466594000,-0.419921875,0.50390625,5.095703125,18.54296875,32.42578125,-1.375
7145470608000,-0.501953125,0.50390625,4.697265625,18.66796875,34.68359375,-0.625
7145476764000,-0.439453125,0.111328125,3.205078125,19.1484375,38.18359375,0.265625
7145482129000,-0.220703125,-0.15625,2.044921875,19.62109375,39.3671875,1.0546875
7145493870000,0.072265625,-0.48046875,-0.578125,19.73046875,40.6484375,5.00390625
7145496438000,-0.02734375,-0.3984375,-1.939453125,20.05859375,39.52734375,6.1796875
7145501360000,-0.2421875,-0.150390625,-3.30859375,20.09765625,39.63671875,6.1640625
7145504298000,-0.361328125,0.02734375,-3.921875,20.2734375,37.421875,6.68359375
7145506431000,-0.44921875,0.1875,-4.513671875,20.19921875,34.25,6.109375
7145509004000,-0.474609375,0.3515625,-5.04296875,19.8046875,30.2734375,4.4609375
7145511422000,-0.443359375,0.482421875,-5.541015625,18.88671875,25.82421875,2.21875
7145514045000,-0.375,0.57421875,-5.990234375,18.93359375,25.95703125,2.2265625
7145516541000,-0.234375,0.61328125,-6.41015625,17.41015625,21.18359375,-0.4375
7145518865000,-0.107421875,0.609375,-6.783203125,15.36328125,16.4375,-2.7109375
7145521456000,0.07421875,0.560546875,-7.123046875,15.41015625,16.6015625,-2.6953125
7145523942000,0.240234375,0.44921875,-7.421875,13.015625,12.05859375,-4.34375
7145529020000,0.48046875,0.158203125,-7.875,13.109375,12.43359375,-4.3203125
7145531434000,0.5390625,-0.021484375,-8.015625,9.30078125,4.203125,-5.203125
7145536378000,0.552734375,-0.400390625,-8.1015625,9.37109375,4.6015625,-5.2109375
7145538810000,0.501953125,-0.576171875,-8.0625,7.94921875,0.81640625,-5.0859375
7145541471000,0.431640625,-0.732421875,-7.96484375,6.671875,-2.89453125,-4.9296875
7145543806000,0.34765625,-0.859375,-7.822265625,6.6953125,-2.70703125,-4.9453125
7145546243000,0.24609375,-0.98046875,-7.654296875,5.38671875,-6.4453125,-4.71875
7145549036000,0.1328125,-1.091796875,-7.443359375,3.8984375,-10.0390625,-4.33984375
7145551223000,-0.009765625,-1.17578125,-7.220703125,2.1640625,-13.3828125,-3.68359375
7145556197000,-0.345703125,-1.330078125,-6.705078125,0.39453125,-16.65625,-3.37109375
7145563758000,-0.607421875,-1.51171875,-5.828125,-2.8125,-23.53515625,-3.30859375
7145575943000,-0.552734375,-1.783203125,-4.44140625,-6.66796875,-31.7265625,-1.55078125
7145578706000,-0.419921875,-1.857421875,-3.666015625,-7.69140625,-33.703125,-0.765625
7145583676000,-0.22265625,-1.873046875,-2.82421875,-7.69921875,-33.546875,-0.859375
7145586555000,-0.13671875,-1.853515625,-2.41796875,-8.46484375,-35.10546875,0.26953125
7145591315000,-0.00390625,-1.734375,-1.53515625,-9.0390625,-35.95703125,1.49609375
7145594001000,0.068359375,-1.630859375,-1.111328125,-9.2109375,-36.5703125,2.7890625
7145596112000,0.130859375,-1.51171875,-0.67578125,-9.2578125,-36.890625,3.83203125
7145598660000,0.1875,-1.341796875,-0.265625,-9.2578125,-36.875,3.79296875
7145601200000,0.236328125,-1.169921875,0.14453125,-9.2109375,-36.7109375,4.8515625
7145603594000,0.310546875,-0.998046875,0.544921875,-9.10546875,-36.48828125,5.69140625
7145606319000,0.41015625,-0.8046875,0.919921875,-9.10546875,-36.50390625,5.66796875
7145608602000,0.51953125,-0.5859375,1.30078125,-8.859375,-36.22265625,6.1015625
7145611118000,0.642578125,-0.384765625,1.63671875,-8.546875,-35.50390625,6.36328125
7145613653000,0.75390625,-0.17578125,1.974609375,-8.1328125,-34.38671875,6.43359375
7145618729000,0.927734375,0.21484375,2.6484375,-8.1171875,-34.49609375,6.41796875
7145621521000,1.001953125,0.384765625,2.984375,-7.57421875,-33.08984375,6.26171875
7145623700000,1.017578125,0.53515625,3.333984375,-6.8671875,-31.4375,5.703125
7145626222000,1.00390625,0.6796875,3.67578125,-6.8671875,-31.5234375,5.7109375
7145628828000,0.947265625,0.810546875,4.04296875,-4.609375,-28.0078125,4.51953125
7145631148000,0.8359375,0.94140625,4.4140625,-4.6015625,-28.1015625,4.53515625
7145633715000,0.693359375,1.09375,4.802734375,-3.08203125,-26.12890625,4.08984375
7145636217000,0.505859375,1.27734375,5.1953125,-1.88671875,-24.06640625,3.25
7145638582000,0.310546875,1.427734375,5.609375,-1.87890625,-24.19921875,3.28125
7145641300000,0.13671875,1.591796875,6.00390625,-0.4140625,-21.6015625,2.421875
7145646124000,-0.291015625,1.90234375,6.794921875,-0.421875,-21.90625,2.515625
7145648853000,-0.51953125,2.03515625,7.154296875,2.453125,-15.71484375,0.73046875
7145654067000,-0.9453125,2.26953125,7.763671875,4.07421875,-12.765625,-0.08203125
7145661893000,-1.59765625,2.689453125,8.234375,7.40234375,-5.8828125,-0.4375
7145670007000,-2.337890625,3.46875,8.060546875,9.7578125,0.40234375,-0.05078125
7145673527000,-2.642578125,3.71875,7.701171875,9.88671875,3.28515625,-0.79296875
7145676059000,-2.673828125,3.771484375,7.435546875,10.796875,6.3359375,-1.40234375
7145680875000,-2.41015625,3.50390625,6.76171875,10.6796875,5.9921875,-1.26171875
7145683607000,-2.09375,3.0390625,6.416015625,9.9375,9.2265625,-2.24609375
7145685993000,-1.7265625,2.390625,6.166015625,8.37109375,12.4140625,-3.44140625
7145688648000,-1.416015625,1.74609375,6.001953125,11.12109375,15.2890625,-3.125
7145690788000,-1.19921875,1.19921875,5.849609375,12.53125,18.65234375,-1.53125
7145697058000,-0.982421875,0.302734375,5.703125,15.08984375,21.625,-0.15625
7145704908000,-1.05859375,-0.228515625,5.326171875,16.34375,25.0234375,1.765625
7145710785000,-0.87109375,-0.349609375,4.20703125,16.1171875,28.07421875,2.97265625
7145715975000,-0.59375,-0.431640625,3.212890625,16.86328125,29.47265625,4.0546875
7145718398000,-0.423828125,-0.50390625,2.685546875,17.7890625,30.98828125,4.765625
7145720861000,-0.2265625,-0.57421875,2.138671875,17.765625,30.93359375,4.75
7145723514000,-0.029296875,-0.62890625,1.62109375,18.34375,32.3359375,5.68359375
7145728492000,0.330078125,-0.64453125,0.50390625,18.3203125,32.296875,5.66015625
7145730852000,0.474609375,-0.607421875,-0.037109375,18.55078125,33.265625,6.76953125
7145733254000,0.552734375,-0.546875,-0.615234375,18.44140625,33.5390625,7.90234375
7145735982000,0.619140625,-0.484375,-1.171875,18.140625,33.28515625,8.91015625
7145738359000,0.66015625,-0.376953125,-1.7265625,18.15625,33.32421875,8.91015625
7145740897000,0.7265625,-0.25390625,-2.28125,18.0078125,32.64453125,9.515625
7145743380000,0.810546875,-0.109375,-2.8125,18.0390625,32.69921875,9.515625
7145745727000,0.939453125,0.060546875,-3.34375,18.1171875,31.44921875,9.5703125
7145748495000,1.09375,0.205078125,-3.8671875,17.8984375,29.8203125,9.2109375
7145750698000,1.296875,0.35546875,-4.408203125,17.32421875,28.01953125,8.6640625
7145755833000,1.69921875,0.5703125,-5.447265625,17.42578125,28.25390625,8.71875
7145758660000,1.908203125,0.677734375,-5.947265625,16.40234375,23.34765625,6.32421875
7145763231000,2.287109375,0.849609375,-6.923828125,16.50390625,23.62890625,6.39453125
7145766277000,2.4609375,0.896484375,-7.359375,15.8828125,20.65234375,4.203125
7145768169000,2.619140625,0.912109375,-7.779296875,14.45703125,17.390625,1.984375
7145770782000,2.7890625,0.86328125,-8.15625,12.59375,14.12109375,-0.10546875
7145773450000,2.95703125,0.7734375,-8.474609375,10.828125,10.68359375,-2.01953125
7145775817000,3.14453125,0.611328125,-8.783203125,10.875,10.88671875,-1.98046875
7145778228000,3.333984375,0.412109375,-9.05859375,9.25390625,7.6171875,-3.2890625
7145780785000,3.478515625,0.203125,-9.26171875,7.7578125,4.625,-4.40625
7145783162000,3.59765625,-0.005859375,-9.44921875,7.8046875,4.84375,-4.3828125
7145785832000,3.70703125,-0.228515625,-9.564453125,6.49609375,2.11328125,-4.87109375
7145790674000,3.818359375,-0.65625,-9.6015625,6.57421875,2.60546875,-4.87109375
7145798180000,3.650390625,-1.140625,-9.267578125,4.59765625,-2.94140625,-5.06640625
7145803258000,3.423828125,-1.294921875,-8.9375,2.359375,-8.78125,-5.609375
7145813266000,2.630859375,-1.59375,-7.892578125,-2.1953125,-17.203125,-5.39453125
7145818197000,1.87109375,-1.669921875,-6.96875,-2.2265625,-16.8359375,-5.48828125
7145820494000,1.41015625,-1.650390625,-6.3984375,-3.14453125,-19.55078125,-4.8515625
7145823011000,0.91796875,-1.61328125,-5.798828125,-3.828125,-22.05859375,-3.9453125
7145825684000,0.361328125,-1.537109375,-5.1328125,-3.84375,-21.92578125,-3.984375
7145828334000,-0.22265625,-1.439453125,-4.43359375,-4.703125,-26.17578125,-2.51953125
7145834029000,-1.3515625,-1.1484375,-2.96875,-5.33203125,-27.5546875,-1.93359375
7145840532000,-3.1328125,-0.748046875,-0.736328125,-6.53515625,-29.39453125,-0.2421875
7145849567000,-5.037109375,-0.330078125,1.421875,-5.48046875,-30.125,1.58203125
7145853127000,-6.142578125,0.111328125,2.8125,-5.45703125,-30.2734375,1.62890625
7145855500000,-6.630859375,0.353515625,3.501953125,-4.609375,-30.01953125,2.1875
7145858103000,-7.064453125,0.59375,4.140625,-4.01953125,-29.1796875,2.41796875
7145860666000,-7.42578125,0.82421875,4.720703125,-4.00390625,-29.3203125,2.46484375
7145863021000,-7.708984375,1.009765625,5.26171875,-3.546875,-27.9921875,2.38671875
7145865561000,-7.94140625,1.177734375,5.7265625,-3.2890625,-26.26953125,2.171875
7145867971000,-8.123046875,1.27734375,6.099609375,-3.265625,-24.28515625,1.7578125
7145872873000,-8.220703125,1.337890625,6.6328125,-3.25,-24.66796875,1.8515625
7145875840000,-8.220703125,1.30859375,6.8046875,-3.171875,-22.640625,1.3828125
7145878022000,-8.162109375,1.234375,6.90234375,-2.796875,-20.55078125,1.203125
7145880384000,-8.076171875,1.140625,6.970703125,-2.39453125,-18.58984375,1.234375
7145883109000,-7.96484375,1.033203125,6.998046875,-2.41015625,-18.80078125,1.265625
7145885306000,-7.81640625,0.931640625,6.95703125,-2.07421875,-16.96484375,1.34765625
7145888091000,-7.630859375,0.8359375,6.935546875,-1.83203125,-15.22265625,1.5
7145890461000,-7.40234375,0.7265625,6.853515625,-1.3203125,-13.57421875,1.515625
7145892966000,-7.146484375,0.609375,6.7734375,-1.34375,-13.76953125,1.515625
7145895522000,-6.87109375,0.486328125,6.66015625,-0.73828125,-12.296875,1.44140625
7145900496000,-6.205078125,0.212890625,6.38671875,-0.78515625,-12.6640625,1.40234375
7145903258000,-5.80859375,0.078125,6.21484375,-0.3828125,-11.2265625,1.3203125
7145905529000,-5.349609375,-0.07421875,6.02734375,-0.203125,-9.71875,1.046875
7145907966000,-4.818359375,-0.2421875,5.802734375,-0.06640625,-8.2578125,0.8125
7145910539000,-4.236328125,-0.421875,5.55859375,0.19921875,-6.4765625,0.57421875
7145912944000,-3.6015625,-0.580078125,5.3046875,0.17578125,-6.609375,0.53515625
7145915478000,-2.88671875,-0.75,5.001953125,0.41015625,-4.77734375,0.29296875
7145917899000,-2.138671875,-0.912109375,4.693359375,0.6015625,-3.140625,0.30078125
7145920412000,-1.35546875,-1.0703125,4.31640625,0.5703125,-3.2421875,0.26953125
7145922923000,-0.509765625,-1.201171875,3.90234375,0.859375,-1.5703125,0.3828125
7145927859000,1.234375,-1.353515625,2.96484375,0.8203125,-1.71875,0.328125
7145930390000,2.126953125,-1.39453125,2.44140625,1.71484375,2.171875,0.1875
7145935464000,3.908203125,-1.45703125,1.29296875,1.69921875,2.1171875,0.1796875
7145938170000,4.8515625,-1.501953125,0.685546875,1.82421875,3.953125,0.140625
7145940457000,5.84375,-1.537109375,0.060546875,1.99609375,5.92578125,-0.421875
7145942740000,6.912109375,-1.59375,-0.599609375,2.00390625,5.95703125,-0.40625
7145945291000,7.994140625,-1.64453125,-1.2734375,2.70703125,7.78125,-1.72265625
7145948011000,9.080078125,-1.748046875,-2.005859375,3.0390625,9.40234375,-3.2890625
7145950238000,10.109375,-1.984375,-2.75,2.74609375,11.03515625,-4.390625
7145957877000,12.416015625,-2.486328125,-4.783203125,2.453125,12.4296875,-4.26953125
7145963065000,13.1796875,-2.89453125,-5.990234375,1.7734375,13.20703125,-2.2734375
7145970239000,13.18359375,-3.2265625,-7.177734375,2.6875,11.359375,-0.3359375
7145974845000,12.96484375,-3.19140625,-7.404296875,3.1015625,9.4921875,0.8203125
7145977902000,12.2734375,-2.888671875,-7.6953125,3.22265625,7.765625,2.12109375
7145980206000,11.810546875,-2.6640625,-7.689453125,2.98828125,5.6953125,3.3671875
7145982767000,11.23828125,-2.3671875,-7.583984375,3.00390625,5.9375,3.3125
7145985240000,10.58984375,-2.041015625,-7.375,2.72265625,3.40234375,4.21875
7145990202000,8.92578125,-1.27734375,-6.634765625,2.72265625,3.82421875,4.1171875
7145997701000,5.921875,0.111328125,-4.890625,3.0703125,-2.33203125,2.23046875
7146002680000,3.357421875,0.8203125,-3.30859375,-0.07421875,-6.4921875,0.6484375
7146012642000,-2.259765625,2.123046875,0.650390625,-0.11328125,-7.234375,-2.046875
7146017729000,-4.556640625,2.626953125,2.8515625,-0.12109375,-7.3515625,-1.90625
7146020048000,-5.5390625,2.810546875,3.91015625,2.88671875,-4.015625,-4.96875
7146022565000,-6.451171875,2.923828125,4.875,2.88671875,-4.1484375,-4.8828125
7146025195000,-7.294921875,2.966796875,5.6875,2.66015625,-1.640625,-5.265625
7146027649000,-8.08203125,2.931640625,6.333984375,1.671875,1.25,-5.0234375
7146033608000,-9.3515625,2.748046875,7.169921875,1.3984375,3.8671875,-4.4453125
7146041266000,-10.62109375,2.1015625,7.388671875,1.87109375,8.12109375,-2.42578125
7146049157000,-11.140625,1.36328125,6.779296875,1.78125,10.37890625,0.53125
7146052466000,-11.033203125,0.8203125,6.05859375,1.48828125,9.77734375,2.53515625
7146055303000,-10.767578125,0.44921875,5.568359375,1.8203125,9.89453125,3.9609375
7146060068000,-10.185546875,0.169921875,4.703125,1.7734375,9.53515625,3.8671875
7146062504000,-9.8984375,0.095703125,4.35546875,2.59375,10.30078125,4.98828125
7146064933000,-9.5234375,-0.001953125,4.01953125,3.0390625,10.02734375,5.875
7146067526000,-9.04296875,-0.123046875,3.685546875,3.16015625,9.55078125,6.1640625
7146072409000,-7.412109375,-0.328125,2.90625,3.12109375,9.30859375,6.0390625
7146076373000,-6.220703125,-0.373046875,2.4140625,3.1640625,8.44921875,5.02734375
7146084220000,-1.640625,-0.39453125,0.634765625,3.37109375,9.55078125,4.296875
7146092415000,3.9921875,-0.568359375,-2.533203125,2.05078125,11.35546875,5.03515625
7146094980000,4.916015625,-0.552734375,-3.369140625,1.44921875,11.45703125,5.546875
7146099944000,6.291015625,-0.427734375,-4.93359375,1.51171875,11.69921875,5.59375
7146102615000,6.73828125,-0.337890625,-5.62109375,1.9765625,11.25390625,4.9921875
7146105059000,7.001953125,-0.228515625,-6.216796875,2.8203125,10.015625,4.1796875
7146107462000,7.130859375,-0.107421875,-6.705078125,2.87109375,8.13671875,3.89453125
7146110039000,7.087890625,-0.04296875,-7.126953125,2.5078125,6.0703125,4.09375
7146114904000,6.63671875,0.056640625,-7.587890625,2.578125,6.484375,4.1484375
7146117533000,6.2578125,0.0859375,-7.662109375,2.3828125,4.37890625,4.43359375
7146119862000,5.85546875,0.13671875,-7.61328125,2.5390625,2.01953125,4.2265625
7146122354000,5.37890625,0.224609375,-7.419921875,2.5546875,2.23046875,4.2421875
7146124820000,4.904296875,0.318359375,-7.146484375,3.546875,-0.609375,2.5234375
7146127490000,4.322265625,0.349609375,-6.77734375,4.50390625,-3.86328125,-0.57421875
7146129936000,3.658203125,0.369140625,-6.30859375,3.6953125,-7.4375,-3.31640625
7146134885000,1.939453125,0.296875,-5.15625,0.92578125,-10.5390625,-4.421875
7146142407000,-1.439453125,0.23046875,-3.029296875,-4.1171875,-14.65625,-4.56640625
7146149975000,-5.1640625,0.068359375,-0.474609375,-4.48828125,-16.5234375,-3.42578125
7146154788000,-6.234375,-0.001953125,0.423828125,-2.92578125,-16.2734375,-2.71875
7146157258000,-7.986328125,-0.134765625,2.265625,-1.30859375,-15.50390625,-2.01953125
7146162365000,-9.12109375,-0.298828125,3.98828125,-1.30078125,-15.76171875,-2.01953125
7146165081000,-9.451171875,-0.400390625,4.716796875,-0.44921875,-14.65234375,-0.953125
7146167316000,-9.6953125,-0.48828125,5.34375,-0.03515625,-13.2109375,0.515625
7146169850000,-9.806640625,-0.59765625,5.845703125,-0.015625,-11.56640625,2.0078125
7146172234000,-9.810546875,-0.693359375,6.23046875,-0.015625,-9.83984375,3.2421875
7146177248000,-9.490234375,-0.892578125,6.666015625,-0.0390625,-10.26171875,3.1484375
7146179609000,-9.15625,-0.974609375,6.7109375,0.1875,-8.6640625,4.1640625
7146182330000,-8.7109375,-1.0390625,6.693359375,0.39453125,-7.25390625,5.03125
7146184627000,-8.15234375,-1.087890625,6.6015625,0.37109375,-7.44140625,4.96875
7146187283000,-7.4765625,-1.1171875,6.416015625,0.5390625,-6.078125,6.23828125
7146189704000,-6.62890625,-1.087890625,6.216796875,0.8046875,-4.1484375,7.07421875
7146192261000,-5.65625,-1.046875,5.9453125,0.9609375,-1.87890625,7.13671875
7146197810000,-3.26171875,-0.9296875,5.2421875,1.04296875,0.37109375,6.73828125
7146204612000,1.138671875,-0.861328125,3.650390625,1.76171875,5.75,5.12109375
7146213469000,5.853515625,-0.76953125,1.525390625,3.09375,12.015625,2.98828125
7146217119000,8.6640625,-0.75,-0.13671875,3.546875,14.22265625,0.84375
7146219735000,9.87109375,-0.744140625,-1.078125,2.98828125,15.1953125,-0.546875
7146224509000,11.673828125,-0.62109375,-3.12890625,3.02734375,15.3828125,-0.421875
7146227143000,12.23046875,-0.53515625,-4.19921875,0.97265625,14.8125,-1.0703125
7146233072000,12.65234375,-0.51171875,-6.201171875,0.23828125,13.7265625,-0.53515625
7146239657000,12.01953125,-0.662109375,-8.5,1.24609375,9.6171875,-0.30859375
7146248773000,10.97265625,-0.646484375,-9.451171875,3.12890625,3.34375,-1.53125
7146252053000,10.25390625,-0.6171875,-9.318359375,3.16015625,3.90625,-1.5390625
7146254611000,9.814453125,-0.599609375,-9.0234375,2.35546875,-3.93359375,-2.3984375
7146256969000,9.267578125,-0.611328125,-8.60546875,2.34765625,-3.68359375,-2.4140625
7146259611000,8.58203125,-0.607421875,-8.02734375,0.78515625,-7.42578125,-2.30078125
7146262076000,7.74609375,-0.63671875,-7.3515625,-1.01171875,-11.0625,-2.11328125
7146264585000,6.775390625,-0.654296875,-6.5625,-1.02734375,-10.8671875,-2.14453125
7146268431000,5.69921875,-0.63671875,-5.662109375,-2.51953125,-13.93359375,-1.96484375
7146274873000,1.986328125,-0.32421875,-2.568359375,-3.83203125,-16.734375,-1.44921875
7146279948000,-0.513671875,0.0390625,-0.30078125,-3.609375,-16.53125,-1.32421875
7146291777000,-4.662109375,0.474609375,3.640625,-1.3828125,-11.46484375,-0.20703125
7146294501000,-6.126953125,0.439453125,5.158203125,-1.359375,-11.74609375,-0.14453125
7146296866000,-6.7265625,0.44921875,5.751953125,-0.3125,-9.8046875,0.90234375
7146299460000,-7.17578125,0.4453125,6.2265625,0.72265625,-7.88671875,2.171875
7146302124000,-7.521484375,0.42578125,6.595703125,0.73046875,-8.08984375,2.1953125
7146304431000,-7.748046875,0.42578125,6.86328125,2.0703125,-6.1953125,3.33203125
7146307116000,-7.8828125,0.4609375,7.0546875,3.08203125,-4.50390625,4.25390625
7146309454000,-7.880859375,0.48046875,7.134765625,3.5625,-3.06640625,5.046875
7146314534000,-7.5234375,0.529296875,7.056640625,3.546875,-3.50390625,5.0625
7146317119000,-7.13671875,0.5078125,6.90625,3.9609375,-2.03515625,5.51171875
7146319470000,-6.587890625,0.46875,6.693359375,4.015625,-0.26171875,5.3125
7146321955000,-5.869140625,0.408203125,6.431640625,4.0,-0.45703125,5.3046875
7146324345000,-4.958984375,0.306640625,6.12890625,3.609375,1.59375,4.41796875
7146326992000,-3.880859375,0.169921875,5.76171875,3.01171875,3.71875,2.9453125
7146329339000,-2.66015625,-0.017578125,5.33203125,2.5390625,5.83984375,1.546875
7146334541000,0.087890625,-0.5078125,4.23828125,2.39453125,7.78125,0.2109375
7146341879000,4.146484375,-1.201171875,2.013671875,1.73828125,11.1640625,-0.81640625
7146349427000,6.859375,-1.59765625,-0.681640625,1.54296875,12.890625,-0.57421875
7146354247000,7.34375,-1.642578125,-1.54296875,1.79296875,12.81640625,-0.640625
7146356852000,7.6015625,-1.603515625,-3.046875,1.609375,12.01953125,-0.55078125
7146361847000,7.041015625,-1.46875,-4.1796875,1.6484375,12.26953125,-0.56640625
7146364804000,6.515625,-1.40625,-4.595703125,1.09375,10.6875,-0.24609375
7146366943000,5.83984375,-1.3203125,-4.884765625,0.421875,8.48828125,-0.03515625
7146369198000,5.07421875,-1.236328125,-5.095703125,0.09765625,5.96484375,0.1328125
7146371761000,4.2421875,-1.130859375,-5.150390625,-0.05859375,3.2578125,0.31640625
7146376739000,2.53515625,-0.943359375,-5.009765625,-0.02734375,3.53125,0.27734375
7146379299000,1.712890625,-0.814453125,-4.80859375,0.18359375,0.62890625,0.08984375
7146381637000,0.908203125,-0.6796875,-4.5078125,0.8046875,-2.25390625,-0.4609375
7146384316000,0.146484375,-0.501953125,-4.107421875,0.8125,-2.14453125,-0.4765625
7146386897000,-0.599609375,-0.328125,-3.65234375,1.38671875,-4.73046875,-1.1640625
7146389202000,-1.3203125,-0.134765625,-3.087890625,1.5,-6.82421875,-1.62109375
7146391766000,-2.017578125,0.046875,-2.525390625,0.98046875,-8.34375,-1.7265625
7146397317000,-3.412109375,0.310546875,-1.193359375,0.23828125,-9.36328125,-1.4609375
7146406807000,-5.697265625,0.697265625,1.326171875,-0.375,-9.48046875,-1.40625
7146412952000,-6.451171875,0.75390625,2.37890625,-0.74609375,-6.96484375,-1.23046875
7146416688000,-6.9765625,0.64453125,3.1953125,-1.13671875,-5.796875,-0.84375
7146419343000,-7.138671875,0.55859375,3.482421875,-1.55859375,-4.7109375,-0.421875
7146424128000,-7.25390625,0.283203125,3.826171875,-1.57421875,-4.9609375,-0.4296875
7146426632000,-7.1796875,0.1328125,3.8828125,-2.1328125,-3.3203125,1.28515625
7146432584000,-6.7734375,-0.240234375,3.80078125,-2.140625,-3.12890625,2.8359375
7146439359000,-5.28515625,-0.654296875,3.33984375,-1.21484375,-3.17578125,6.23828125
7146448118000,-2.458984375,-0.65625,2.685546875,0.0078125,-1.40234375,7.78125
7146451579000,0.0625,-0.64453125,2.15625,0.0,-1.53515625,7.734375
7146454035000,1.384765625,-0.66796875,1.841796875,1.24609375,0.90625,8.40625
7146456586000,2.728515625,-0.7421875,1.486328125,1.23828125,0.875,8.3984375
7146459112000,4.025390625,-0.810546875,1.08203125,1.7578125,1.9609375,8.8125
7146461587000,5.283203125,-0.84765625,0.638671875,2.3984375,3.15625,8.76171875
7146464080000,6.470703125,-0.873046875,0.154296875,2.3984375,3.171875,8.76953125
7146467924000,7.52734375,-0.873046875,-0.32421875,2.98046875,4.32421875,8.05078125
7146471661000,9.2109375,-0.798828125,-1.310546875,2.99609375,4.44140625,8.08984375
7146473867000,9.7421875,-0.666015625,-1.77734375,3.15625,5.52734375,7.84375
7146476463000,10.01953125,-0.4765625,-2.212890625,2.8671875,6.25,8.40234375
7146479025000,10.0625,-0.205078125,-2.64453125,2.875,6.48828125,9.125
7146481591000,9.87890625,0.13671875,-3.0234375,2.890625,6.61328125,9.15625
7146483990000,9.474609375,0.505859375,-3.35546875,3.29296875,6.31640625,9.43359375
7146486402000,8.900390625,0.9375,-3.6484375,3.80859375,5.578125,9.05859375
7146488937000,8.216796875,1.404296875,-3.880859375,4.4765625,4.67578125,8.01171875
7146491536000,7.451171875,1.921875,-4.052734375,4.4765625,4.81640625,8.06640625
7146493999000,6.64453125,2.41015625,-4.14453125,5.12890625,3.87890625,6.625
7146498929000,5.025390625,3.34765625,-4.09765625,5.10546875,4.14453125,6.7734375
7146501786000,4.2578125,3.75,-3.943359375,5.6171875,3.23046875,4.95703125
7146504031000,3.53515625,4.09375,-3.748046875,6.140625,2.36328125,2.19921875
7146506495000,2.8203125,4.337890625,-3.48046875,6.2578125,1.62109375,-1.39453125
7146508876000,2.107421875,4.482421875,-3.16796875,5.0859375,0.875,-4.75
7146511483000,1.36328125,4.564453125,-2.85546875,5.0546875,0.9609375,-4.6484375
7146513793000,0.576171875,4.546875,-2.53125,2.69921875,0.41796875,-7.265625
7146516421000,-0.263671875,4.513671875,-2.24609375,0.33984375,0.09765625,-9.21484375
7146518992000,-1.119140625,4.44140625,-1.947265625,0.29296875,0.13671875,-9.10546875
7146521409000,-2.005859375,4.30078125,-1.681640625,-1.2890625,0.20703125,-10.5546875
7146523925000,-2.87890625,4.109375,-1.447265625,-2.06640625,0.73046875,-11.61328125
7146526584000,-3.736328125,3.892578125,-1.208984375,-2.10546875,0.73046875,-11.51171875
7146528795000,-4.53125,3.65625,-1.005859375,-2.30859375,1.44140625,-12.15234375
7146536434000,-6.302734375,2.81640625,-0.486328125,-1.8359375,2.31640625,-13.0
7146541970000,-6.7734375,2.154296875,-0.30859375,-1.53125,2.32421875,-13.2890625
7146553725000,-6.6796875,0.7265625,-0.396484375,-0.80078125,2.97265625,-11.31640625
7146556392000,-6.439453125,0.1015625,-0.58984375,-0.73828125,2.86328125,-10.49609375
7146561195000,-6.119140625,-0.4453125,-0.8046875,-0.73046875,2.76953125,-10.51953125
7146564318000,-5.873046875,-0.67578125,-0.88671875,-0.6484375,2.37890625,-9.90234375
7146566270000,-5.580078125,-0.890625,-0.966796875,-0.57421875,1.65625,-9.5234375
7146568723000,-5.236328125,-1.09765625,-1.03125,-0.56640625,0.96484375,-9.14453125
7146576256000,-3.978515625,-1.677734375,-1.228515625,-0.6796875,-0.4375,-7.74609375
7146583770000,-2.61328125,-2.203125,-1.392578125,-1.61328125,-1.6640625,-4.7578125
7146591585000,-1.234375,-2.61328125,-1.548828125,-1.984375,-2.9765625,-0.75390625
7146596177000,-0.35546875,-2.783203125,-1.603515625,-1.9296875,-2.9140625,-0.88671875
7146598769000,0.06640625,-2.818359375,-1.6015625,-1.58984375,-3.54296875,0.984375
7146601092000,0.490234375,-2.8203125,-1.58984375,-1.23046875,-4.078125,2.63671875
7146603785000,0.890625,-2.818359375,-1.55859375,-1.20703125,-4.03125,2.56640625
7146606474000,1.25390625,-2.76171875,-1.50390625,-0.83203125,-4.875,5.26171875
7146608644000,1.58203125,-2.6875,-1.443359375,-0.81640625,-4.8359375,5.19921875
7146611249000,1.89453125,-2.6015625,-1.359375,-0.765625,-5.15234375,6.1328125
7146613645000,2.16015625,-2.51171875,-1.275390625,-0.7421875,-5.11328125,6.0703125
7146616201000,2.390625,-2.388671875,-1.162109375,-0.640625,-5.44921875,7.05859375
7146618597000,2.580078125,-2.259765625,-1.04296875,-0.66015625,-5.71875,7.94140625
7146621067000,2.734375,-2.13671875,-0.912109375,-0.64453125,-5.6796875,7.88671875
7146623812000,2.8828125,-1.99609375,-0.77734375,-0.5546875,-6.0703125,8.5
7146626134000,2.986328125,-1.87890625,-0.58984375,-0.3359375,-6.47265625,8.82421875
7146631992000,3.14453125,-1.615234375,-0.2265625,0.03125,-6.8515625,8.98828125
7146639888000,3.314453125,-1.263671875,0.4375,0.88671875,-7.17578125,8.95703125
7146647715000,3.48828125,-0.90234375,1.083984375,1.41796875,-6.69140625,8.3984375
7146651072000,3.654296875,-0.705078125,1.419921875,1.42578125,-6.70703125,8.359375
7146653628000,3.751953125,-0.615234375,1.57421875,1.6328125,-6.2265625,7.84765625
7146656197000,3.888671875,-0.52734375,1.69921875,1.890625,-5.50390625,7.15234375
7146658512000,4.05859375,-0.46484375,1.8046875,1.8984375,-5.51953125,7.14453125
7146661133000,4.212890625,-0.41796875,1.880859375,2.12890625,-4.71875,6.390625
7146663555000,4.357421875,-0.384765625,1.92578125,2.39453125,-3.75,5.80859375
7146666058000,4.521484375,-0.359375,1.962890625,2.76953125,-2.51953125,5.16015625
7146670927000,4.837890625,-0.359375,1.9453125,2.76953125,-2.55859375,5.14453125
7146673606000,4.96484375,-0.384765625,1.921875,3.34375,-1.19140625,4.58203125
7146676038000,5.09375,-0.40625,1.87109375,3.88671875,0.1796875,3.8828125
7146678391000,5.19140625,-0.423828125,1.787109375,4.43359375,1.8203125,3.265625
7146680978000,5.259765625,-0.43359375,1.68359375,4.44140625,1.8125,3.2578125
7146683575000,5.30078125,-0.435546875,1.552734375,4.8828125,3.28125,2.6640625
7146685985000,5.3046875,-0.423828125,1.412109375,5.03515625,4.59375,2.08203125
7146688421000,5.283203125,-0.388671875,1.216796875,5.0625,5.7734375,1.51171875
7146694513000,5.10546875,-0.27734375,0.76171875,5.1328125,6.84375,0.8828125
7146701138000,4.41015625,0.03515625,-0.044921875,5.21875,8.61328125,-0.953125
7146710337000,3.134765625,0.5234375,-0.884765625,4.80859375,10.29296875,-3.5546875
7146713518000,2.04296875,0.904296875,-1.404296875,4.3203125,10.78515625,-4.99609375
7146716068000,1.421875,1.10546875,-1.6328125,3.65234375,10.83984375,-5.98828125
7146718477000,0.7421875,1.32421875,-1.8828125,3.64453125,10.87890625,-5.95703125
7146720848000,0.044921875,1.533203125,-2.125,3.04296875,10.7890625,-6.81640625
7146723471000,-0.671875,1.76171875,-2.357421875,2.84375,10.5859375,-7.95703125
7146728476000,-2.056640625,2.197265625,-2.80078125,2.8046875,10.6875,-7.87109375
7146730813000,-2.697265625,2.416015625,-3.0078125,2.97265625,10.34765625,-9.47265625
7146733374000,-3.275390625,2.591796875,-3.2109375,2.83984375,9.6015625,-11.3359375
7146736011000,-3.7734375,2.70703125,-3.404296875,2.81640625,9.6640625,-11.265625
7146738387000,-4.189453125,2.765625,-3.5859375,2.37109375,8.64453125,-13.29296875
7146740888000,-4.5234375,2.8046875,-3.76953125,2.34765625,8.69921875,-13.21484375
7146743220000,-4.798828125,2.759765625,-3.919921875,1.4453125,7.65234375,-14.78125
7146745780000,-5.00390625,2.623046875,-4.060546875,0.24609375,6.421875,-15.7734375
7146748410000,-5.138671875,2.427734375,-4.169921875,-0.75390625,5.203125,-16.3671875
7146756016000,-5.11328125,1.5546875,-4.34375,-1.47265625,2.72265625,-17.26953125
7146760846000,-4.759765625,0.845703125,-4.283203125,-1.55078125,1.4140625,-17.3828125
7146772726000,-3.578125,-0.712890625,-3.833984375,-3.48046875,-1.48046875,-14.21484375
7146775846000,-3.0,-1.525390625,-3.5078125,-3.98828125,-2.25390625,-12.37109375
7146778233000,-2.73046875,-1.896484375,-3.337890625,-4.19921875,-3.05859375,-10.296875
7146780761000,-2.494140625,-2.240234375,-3.185546875,-4.19921875,-3.00390625,-10.3359375
7146783263000,-2.306640625,-2.548828125,-2.994140625,-4.05859375,-3.65625,-7.75390625
7146788221000,-2.08984375,-3.052734375,-2.6640625,-4.03515625,-3.5546875,-7.87109375
7146795657000,-2.2109375,-3.48828125,-2.0703125,-3.5625,-4.671875,-1.8515625
7146800822000,-2.490234375,-3.474609375,-1.66796875,-2.56640625,-6.53125,3.66015625
7146810636000,-2.9375,-3.005859375,-0.69140625,-1.546875,-10.3515625,9.09765625
7146815636000,-2.95703125,-2.673828125,-0.107421875,-1.515625,-10.3671875,8.99609375
7146818159000,-2.8984375,-2.509765625,0.203125,-1.01953125,-12.0078125,11.265625
7146820748000,-2.7734375,-2.373046875,0.525390625,-0.99609375,-12.0390625,11.2265625
7146823099000,-2.58984375,-2.255859375,0.837890625,-0.80859375,-12.4921875,11.7734375
7146825659000,-2.375,-2.16015625,1.158203125,-0.4296875,-12.37109375,12.31640625
7146828318000,-2.099609375,-2.0859375,1.4453125,-0.4140625,-12.41015625,12.26953125
7146830590000,-1.8203125,-2.03515625,1.78125,-0.25390625,-12.45703125,12.6015625
7146833343000,-1.48828125,-2.052734375,2.05078125,-0.53515625,-13.21875,12.9296875
7146835879000,-1.091796875,-2.091796875,2.248046875,-0.51171875,-13.28125,12.8828125
7146838021000,-0.654296875,-2.126953125,2.392578125,-0.41015625,-13.0859375,13.20703125
7146842988000,0.32421875,-2.15625,2.607421875,-0.37109375,-13.2109375,13.10546875
7146845910000,0.833984375,-2.162109375,2.681640625,0.58984375,-11.60546875,13.50390625
7146854884000,2.22265625,-2.22265625,2.775390625,1.8984375,-10.0390625,13.89453125
7146858742000,3.0390625,-2.259765625,2.76171875,2.93359375,-9.23828125,13.85546875
7146870527000,4.84765625,-1.98046875,2.478515625,4.5078125,-7.6953125,12.78515625
7146873179000,5.1484375,-1.90234375,2.341796875,5.125,-6.796875,12.15625
7146875422000,5.416015625,-1.796875,2.208984375,5.66015625,-5.7734375,11.359375
7146877956000,5.66015625,-1.673828125,2.0625,5.66796875,-5.8125,11.3046875
7146880554000,5.833984375,-1.517578125,1.890625,6.14453125,-4.7890625,10.421875
7146882945000,5.982421875,-1.33203125,1.7265625,6.56640625,-3.72265625,9.515625
7146885629000,6.072265625,-1.1640625,1.556640625,6.57421875,-3.74609375,9.4765625
7146887919000,6.111328125,-0.9765625,1.376953125,6.5546875,-1.73828125,8.171875
7146893004000,6.03515625,-0.59765625,0.97265625,6.5625,-1.76953125,8.109375
7146895421000,5.94921875,-0.40234375,0.771484375,6.40625,-0.9921875,7.40234375
7146897989000,5.865234375,-0.2109375,0.556640625,6.02734375,-0.37890625,6.6328125
7146900709000,5.748046875,-0.005859375,0.359375,6.03515625,-0.37890625,6.6171875
7146903025000,5.66015625,0.1796875,0.16015625,5.94921875,0.078125,5.7265625
7146905501000,5.57421875,0.3515625,-0.033203125,5.73828125,0.19921875,4.78125
7146907896000,5.521484375,0.4921875,-0.234375,5.546875,0.37890625,3.8984375
7146913061000,5.42578125,0.673828125,-0.6015625,5.5,0.59765625,3.0625
7146920311000,5.41015625,0.662109375,-1.04296875,5.63671875,1.1796875,1.078125
7146927924000,5.390625,0.4140625,-1.318359375,5.75390625,2.28125,-0.35546875
7146932872000,5.2109375,0.271484375,-1.396484375,5.74609375,2.375,-0.36328125
7146935315000,5.0859375,0.21875,-1.412109375,5.765625,2.8046875,-0.81640625
7146937925000,4.875,0.203125,-1.404296875,5.87109375,2.9375,-1.31640625
7146940409000,4.66796875,0.224609375,-1.400390625,5.86328125,2.9765625,-1.32421875
7146942951000,4.4375,0.2734375,-1.40234375,6.01953125,2.9765625,-1.8125
7146945424000,4.166015625,0.376953125,-1.37109375,6.1640625,2.9140625,-2.55078125
7146947762000,3.904296875,0.51171875,-1.361328125,6.05078125,2.85546875,-3.4765625
7146955265000,3.037109375,1.052734375,-1.306640625,5.078125,2.828125,-6.01953125
7146960232000,2.453125,1.404296875,-1.306640625,4.265625,2.76171875,-7.5859375
7146972386000,1.3203125,2.146484375,-1.431640625,2.1875,2.40625,-13.296875
7146975285000,0.720703125,2.587890625,-1.517578125,2.1640625,2.484375,-13.1953125
7146977856000,0.37890625,2.763671875,-1.568359375,0.94140625,2.26171875,-15.01171875
7146980205000,0.00390625,2.927734375,-1.615234375,-0.77734375,1.9375,-16.76953125
7146982908000,-0.396484375,3.06640625,-1.677734375,-0.80078125,1.96875,-16.69921875
7146985315000,-0.78515625,3.185546875,-1.716796875,-2.50390625,1.5390625,-18.74609375
7146987686000,-1.162109375,3.271484375,-1.755859375,-4.10546875,1.15625,-20.95703125
7146990251000,-1.53515625,3.33984375,-1.78125,-5.4921875,0.59375,-22.703125
7146995139000,-2.306640625,3.2890625,-1.76171875,-5.5390625,0.65625,-22.53125
7146997757000,-2.732421875,3.197265625,-1.716796875,-6.65234375,0.28125,-23.5078125
7147000073000,-3.169921875,3.064453125,-1.669921875,-7.26953125,0.0390625,-24.1875
7147002766000,-3.5859375,2.93359375,-1.59765625,-7.30078125,0.0625,-24.1015625
7147005370000,-3.984375,2.8125,-1.525390625,-7.49609375,-0.41015625,-24.58203125
7147007678000,-4.361328125,2.671875,-1.423828125,-7.51171875,-0.39453125,-24.49609375
7147010273000,-4.7109375,2.529296875,-1.36328125,-7.6875,-0.77734375,-24.296875
7147015242000,-5.234375,2.15625,-1.203125,-7.7265625,-0.77734375,-24.140625
7147017993000,-5.443359375,1.904296875,-1.125,-7.92578125,-1.015625,-23.4296875
7147020066000,-5.59765625,1.634765625,-1.0390625,-8.2109375,-1.2265625,-22.32421875
7147022662000,-5.671875,1.32421875,-0.978515625,-8.4375,-1.2890625,-21.02734375
7147025074000,-5.716796875,0.998046875,-0.8984375,-8.43359375,-1.19921875,-19.5078125
7147027648000,-5.71875,0.654296875,-0.83984375,-8.44140625,-1.22265625,-19.4609375
7147030136000,-5.681640625,0.310546875,-0.771484375,-8.33203125,-1.0078125,-17.49609375
7147032554000,-5.615234375,-0.083984375,-0.71875,-8.0625,-0.65234375,-15.15625
7147035132000,-5.576171875,-0.466796875,-0.654296875,-8.0625,-0.68359375,-15.125
7147037663000,-5.525390625,-0.8671875,-0.587890625,-7.62109375,-0.3046875,-12.55859375
7147042744000,-5.431640625,-1.57421875,-0.4296875,-7.60546875,-0.359375,-12.56640625
7147045365000,-5.349609375,-1.857421875,-0.34375,-6.25,0.05078125,-7.84375
7147050633000,-5.162109375,-2.28515625,-0.203125,-5.62109375,0.0546875,-5.890625
7147057571000,-4.849609375,-2.76953125,-0.076171875,-4.49609375,-0.52734375,-1.3671875
7147066711000,-4.5703125,-3.150390625,-0.02734375,-3.58203125,-1.7890625,2.8984375
7147070143000,-4.3046875,-3.244140625,-0.01953125,-3.0703125,-2.6953125,4.61328125
7147072559000,-4.166015625,-3.26171875,-0.01171875,-2.72265625,-3.6796875,6.24609375
7147077682000,-3.818359375,-3.306640625,0.048828125,-2.68359375,-3.734375,6.12890625
7147080500000,-3.623046875,-3.3046875,0.083984375,-2.5078125,-4.95703125,7.89453125
7147082568000,-3.44140625,-3.3125,0.1171875,-2.39453125,-6.1171875,9.7890625
7147084972000,-3.208984375,-3.322265625,0.193359375,-2.21875,-7.359375,11.63671875
7147087460000,-2.943359375,-3.3125,0.27734375,-1.78125,-8.5234375,13.109375
7147089987000,-2.625,-3.29296875,0.37890625,-1.765625,-8.546875,13.0390625
7147092406000,-2.255859375,-3.275390625,0.470703125,-1.23046875,-9.4140625,14.1953125
7147095070000,-1.84375,-3.2734375,0.5859375,-0.5859375,-10.0703125,15.20703125
7147097547000,-1.404296875,-3.267578125,0.705078125,-0.5703125,-10.09375,15.13671875
7147100052000,-0.96484375,-3.294921875,0.826171875,0.03125,-10.62109375,16.00390625
7147104991000,-0.1015625,-3.341796875,1.080078125,0.0703125,-10.66796875,15.84765625
7147112366000,1.072265625,-3.39453125,1.42578125,1.45703125,-11.1484375,17.3046875
7147117391000,1.7578125,-3.37890625,1.568359375,2.59375,-10.81640625,18.65234375
7147127528000,2.845703125,-3.162109375,1.830078125,5.77734375,-9.60546875,19.546875
7147132378000,3.34765625,-2.869140625,1.91796875,5.79296875,-9.69140625,19.390625
7147135014000,3.572265625,-2.666015625,1.94140625,6.90234375,-8.9921875,19.17578125
7147137290000,3.79296875,-2.400390625,1.94921875,7.90625,-8.21875,18.80078125
7147139975000,4.0,-2.111328125,1.931640625,8.2890625,-7.421875,18.421875
7147142268000,4.19921875,-1.830078125,1.876953125,8.296875,-7.4609375,18.3671875
7147144978000,4.373046875,-1.54296875,1.826171875,8.66015625,-6.734375,17.6484375
7147147270000,4.55078125,-1.248046875,1.732421875,8.96484375,-5.9765625,16.453125
7147154803000,5.134765625,-0.46484375,1.34765625,8.95703125,-4.34375,13.3125
7147159832000,5.541015625,-0.072265625,1.037109375,8.9375,-3.52734375,11.60546875
7147171669000,5.958984375,0.48046875,0.35546875,9.30078125,-0.55078125,7.05859375
7147174780000,5.9375,0.7734375,0.00390625,9.30859375,0.13671875,5.578125
7147177269000,5.859375,0.994140625,-0.162109375,9.4140625,0.90234375,4.15625
7147179841000,5.771484375,1.2265625,-0.349609375,9.4140625,0.91015625,4.171875
7147182239000,5.65234375,1.427734375,-0.533203125,9.453125,1.4921875,2.65234375
7147187305000,5.361328125,1.693359375,-0.86328125,9.4453125,1.53125,2.71484375
7147194705000,4.787109375,2.013671875,-1.263671875,9.5703125,2.36328125,-0.0703125
7147202232000,4.2578125,2.541015625,-1.650390625,9.79296875,3.0078125,-2.4375
7147209625000,3.73046875,3.21875,-2.0,9.49609375,4.91796875,-7.01953125
7147214574000,3.234375,3.607421875,-2.24609375,9.48046875,5.03515625,-6.87890625
7147217217000,2.955078125,3.80859375,-2.37890625,9.2734375,5.85546875,-8.25
7147219760000,2.642578125,4.015625,-2.544921875,8.95703125,6.25,-9.578125
7147222361000,2.3125,4.2109375,-2.705078125,8.50390625,6.40625,-11.10546875
7147224716000,1.982421875,4.45703125,-2.875,8.01953125,6.41015625,-13.1953125
7147227084000,1.705078125,4.73046875,-3.048828125,7.99609375,6.48046875,-13.1015625
7147229592000,1.4296875,4.955078125,-3.21875,6.91015625,6.26953125,-15.578125
7147232232000,1.189453125,5.10546875,-3.380859375,5.7109375,5.75390625,-18.1640625
7147234672000,0.9375,5.19140625,-3.560546875,5.671875,5.83984375,-18.0546875
7147237254000,0.650390625,5.23046875,-3.7109375,4.4921875,5.4453125,-20.21875
7147242127000,-0.029296875,5.263671875,-3.97265625,4.4140625,5.6328125,-19.9765625
7147244870000,-0.419921875,5.23828125,-4.03515625,2.05859375,4.53515625,-23.0703125
7147249932000,-1.240234375,5.16015625,-4.12890625,1.57421875,3.703125,-24.11328125
7147257080000,-2.396484375,4.982421875,-4.0546875,0.87109375,1.30078125,-26.02734375
7147266238000,-3.146484375,4.54296875,-3.849609375,-0.20703125,-0.7265625,-27.22265625
7147269530000,-3.521484375,4.001953125,-3.626953125,-0.90234375,-1.17578125,-27.37109375
7147272194000,-3.703125,3.712890625,-3.50390625,-1.3671875,-1.10546875,-26.6875
7147276810000,-4.111328125,3.21484375,-3.234375,-1.4765625,-1.02734375,-26.4921875
7147279392000,-4.34375,3.001953125,-3.125,-2.078125,-0.65234375,-25.0703125
7147281952000,-4.537109375,2.830078125,-3.056640625,-2.61328125,-0.3515625,-23.7421875
7147284427000,-4.689453125,2.65234375,-2.96484375,-3.05078125,-0.13671875,-22.6015625
7147286884000,-4.830078125,2.484375,-2.9140625,-3.4921875,0.0234375,-21.37890625
7147292013000,-4.998046875,2.05078125,-2.81640625,-3.796875,0.40234375,-20.3046875
7147300921000,-5.208984375,1.326171875,-2.62109375,-4.18359375,1.109375,-17.203125
7147307060000,-5.55078125,0.3046875,-2.453125,-3.859375,1.25,-12.9296875
7147312015000,-5.884765625,-0.40625,-2.326171875,-3.73828125,1.046875,-11.0078125
7147314548000,-6.056640625,-0.71875,-2.236328125,-3.484375,0.27734375,-9.71875
7147316945000,-6.19921875,-0.955078125,-2.13671875,-3.4921875,0.25390625,-9.6953125
7147319323000,-6.333984375,-1.1796875,-2.048828125,-3.33203125,-0.91796875,-8.36328125
7147321952000,-6.474609375,-1.3359375,-1.947265625,-3.53125,-2.296875,-6.77734375
7147326866000,-6.736328125,-1.58984375,-1.791015625,-3.5234375,-2.3828125,-6.74609375
7147331971000,-6.9140625,-1.74609375,-1.607421875,-4.515625,-5.3515625,-3.42578125
7147339272000,-6.931640625,-1.82421875,-1.31640625,-4.97265625,-7.23046875,-1.96484375
7147347012000,-6.509765625,-1.87890625,-0.890625,-6.53515625,-11.56640625,1.89453125
7147351610000,-6.326171875,-1.94921875,-0.712890625,-6.8671875,-12.671875,2.9375
7147354393000,-5.91015625,-2.09375,-0.298828125,-6.98828125,-13.734375,3.84375
7147359286000,-5.48828125,-2.2578125,0.171875,-6.94140625,-13.8671875,3.8125
7147362170000,-5.318359375,-2.34375,0.42578125,-7.06640625,-14.59765625,4.69140625
7147364413000,-5.1484375,-2.43359375,0.69921875,-7.15234375,-15.1484375,5.5
7147366875000,-5.037109375,-2.53515625,0.98828125,-7.12890625,-15.51171875,6.29296875
7147374256000,-4.818359375,-2.802734375,1.943359375,-6.73046875,-16.57421875,7.23828125
7147381733000,-4.498046875,-3.033203125,2.87890625,-6.3671875,-17.0703125,7.9296875
7147389373000,-3.998046875,-3.37890625,3.767578125,-6.0703125,-16.8828125,8.34765625
7147394164000,-3.486328125,-3.66015625,4.2734375,-5.9921875,-17.140625,8.19921875
7147396764000,-3.1953125,-3.8125,4.5,-5.37890625,-16.84375,8.33984375
7147399280000,-2.90625,-3.958984375,4.693359375,-4.65234375,-16.33203125,8.78125
7147401772000,-2.59375,-4.091796875,4.869140625,-4.61328125,-16.47265625,8.6875
7147404237000,-2.271484375,-4.20703125,5.015625,-2.71484375,-15.10546875,10.5
7147406716000,-1.955078125,-4.28515625,5.134765625,-2.67578125,-15.24609375,10.3984375
7147409205000,-1.619140625,-4.328125,5.22265625,-1.55078125,-14.53515625,11.3203125
7147414123000,-0.939453125,-4.294921875,5.345703125,-1.48828125,-14.79296875,11.125
7147417000000,-0.61328125,-4.22265625,5.37890625,-0.39453125,-14.1171875,11.76171875
7147419163000,-0.2734375,-4.109375,5.37890625,0.65625,-13.23828125,12.17578125
7147421715000,0.076171875,-3.94921875,5.373046875,1.59765625,-12.20703125,12.40625
7147424088000,0.392578125,-3.8125,5.337890625,2.4765625,-11.09765625,12.4375
7147426663000,0.740234375,-3.640625,5.25390625,2.4921875,-11.21484375,12.3515625
7147428962000,1.087890625,-3.46875,5.158203125,3.32421875,-9.97265625,11.9921875
7147431586000,1.4296875,-3.283203125,5.013671875,4.0390625,-8.64453125,11.46484375
7147434203000,1.78515625,-3.08203125,4.869140625,4.0390625,-8.75390625,11.39453125
7147436687000,2.142578125,-2.892578125,4.67578125,4.56640625,-7.4609375,10.94921875
7147441766000,2.87890625,-2.54296875,4.22265625,4.55859375,-7.640625,10.83984375
7147444523000,3.25390625,-2.375,3.951171875,5.79296875,-5.66796875,9.87109375
7147449083000,4.048828125,-2.05078125,3.310546875,5.78515625,-5.77734375,9.81640625
7147451825000,4.47265625,-1.8828125,2.94921875,6.26953125,-5.0546875,9.15234375
7147454005000,4.8984375,-1.703125,2.583984375,6.79296875,-4.08984375,8.14453125
7147456669000,5.3359375,-1.533203125,2.2109375,6.79296875,-4.11328125,8.12890625
7147459243000,5.7890625,-1.376953125,1.8046875,6.98828125,-3.02734375,6.7578125
7147461645000,6.24609375,-1.2578125,1.396484375,7.0078125,-2.18359375,5.13671875
7147463964000,6.689453125,-1.177734375,0.96484375,7.0078125,-1.10546875,3.8828125
7147471446000,7.72265625,-1.23828125,-0.337890625,7.76171875,0.86328125,2.62890625
7147476572000,8.099609375,-1.26171875,-1.12890625,8.5390625,1.7421875,2.05859375
7147488719000,8.486328125,-0.880859375,-2.52734375,10.0390625,3.2578125,-0.34375
7147491531000,8.513671875,-0.685546875,-3.091796875,10.04296875,3.73828125,-1.4140625
7147494044000,8.498046875,-0.62109375,-3.3203125,9.68359375,3.7421875,-2.70703125
7147496455000,8.4765625,-0.56640625,-3.55859375,9.69921875,3.875,-2.69140625
7147498935000,8.443359375,-0.56640625,-3.740234375,9.75390625,3.70703125,-4.01171875
7147503863000,8.24609375,-0.46484375,-4.060546875,9.77734375,3.99609375,-4.00390625
7147511655000,7.662109375,-0.427734375,-4.232421875,8.33984375,3.59765625,-5.79296875
7147518941000,6.7890625,-0.4609375,-3.94921875,6.79296875,2.5625,-7.76953125
7147526338000,5.693359375,-0.224609375,-3.322265625,5.2890625,2.69921875,-11.6953125
7147531368000,4.576171875,0.01171875,-2.83984375,5.28125,2.90234375,-11.7109375
7147533992000,3.85546875,0.146484375,-2.6328125,4.3671875,3.33984375,-12.45703125
7147536300000,3.099609375,0.310546875,-2.4375,3.41015625,3.66796875,-13.5078125
7147538928000,2.3203125,0.48828125,-2.212890625,2.47265625,3.61328125,-14.828125
7147541423000,1.548828125,0.685546875,-2.015625,2.45703125,3.69140625,-14.8203125
7147543865000,0.8203125,0.869140625,-1.814453125,1.38671875,3.30859375,-16.3203125
7147546295000,0.12890625,1.056640625,-1.619140625,0.3359375,2.75390625,-17.7890625
7147548935000,-0.5,1.2265625,-1.4140625,-0.75390625,2.16796875,-19.47265625
7147551233000,-1.052734375,1.400390625,-1.216796875,-0.76171875,2.19140625,-19.44140625
7147553945000,-1.583984375,1.533203125,-1.041015625,-1.9609375,1.89453125,-20.734375
7147558826000,-2.57421875,1.73828125,-0.75390625,-1.984375,1.91015625,-20.640625
7147561652000,-3.0078125,1.7578125,-0.623046875,-3.50390625,1.890625,-21.55078125
7147563977000,-3.375,1.74609375,-0.552734375,-4.6875,1.77734375,-23.0078125
7147566311000,-3.671875,1.708984375,-0.482421875,-5.84765625,1.51171875,-24.41796875
7147568788000,-3.923828125,1.603515625,-0.4609375,-7.625,1.62890625,-24.84375
7147571373000,-4.150390625,1.408203125,-0.47265625,-7.640625,1.61328125,-24.796875
7147573720000,-4.349609375,1.150390625,-0.517578125,-8.96875,1.83984375,-24.44921875
7147576331000,-4.490234375,0.87109375,-0.572265625,-9.5625,2.16015625,-23.48046875
7147578777000,-4.61328125,0.556640625,-0.61328125,-9.5703125,2.13671875,-23.44921875
7147581259000,-4.681640625,0.2421875,-0.658203125,-9.55859375,2.42578125,-22.0078125
7147586091000,-4.69921875,-0.51953125,-0.73828125,-9.55859375,2.38671875,-21.984375
7147593618000,-4.51171875,-1.79296875,-0.802734375,-8.44140625,2.8203125,-17.92578125
7147601176000,-4.232421875,-2.892578125,-0.71484375,-6.62109375,2.3984375,-13.13671875
7147608674000,-4.033203125,-3.580078125,-0.623046875,-5.71484375,0.0625,-6.41015625
7147613716000,-3.9453125,-3.83984375,-0.578125,-5.66796875,0.0390625,-6.55859375
7147616218000,-3.888671875,-3.92578125,-0.5703125,-5.9140625,-1.01171875,-4.43359375
7147618632000,-3.82421875,-3.99609375,-0.55859375,-6.0625,-2.06640625,-2.3359375
7147621231000,-3.728515625,-4.029296875,-0.529296875,-5.97265625,-3.23828125,-0.5859375
7147623463000,-3.623046875,-4.052734375,-0.509765625,-5.73828125,-4.47265625,1.3203125
7147626236000,-3.515625,-4.0703125,-0.482421875,-5.71484375,-4.48046875,1.2265625
7147628711000,-3.376953125,-4.09375,-0.453125,-5.44140625,-5.63671875,3.15234375
7147631081000,-3.232421875,-4.0625,-0.408203125,-5.1484375,-6.48828125,5.03125
7147633689000,-3.12109375,-4.013671875,-0.341796875,-5.125,-6.48828125,4.9453125
7147636259000,-2.966796875,-3.982421875,-0.29296875,-5.30078125,-7.453125,6.87890625
7147641239000,-2.583984375,-3.943359375,-0.150390625,-5.26953125,-7.4609375,6.69921875
7147643874000,-2.349609375,-3.896484375,-0.06640625,-4.73828125,-8.7421875,10.046875
7147651254000,-1.625,-3.7734375,0.314453125,-4.01953125,-9.51953125,11.13671875
7147656098000,-1.15234375,-3.671875,0.611328125,-2.81640625,-10.7109375,13.1875
7147665020000,-0.470703125,-3.5546875,1.08203125,-2.09375,-11.44140625,14.48828125
7147668692000,-0.04296875,-3.490234375,1.419921875,-1.4765625,-11.66015625,14.91796875
7147671087000,0.140625,-3.46875,1.609375,-0.83984375,-11.45703125,15.234375
7147676104000,0.48828125,-3.455078125,1.994140625,-0.83203125,-11.55078125,15.0703125
7147679040000,0.630859375,-3.46484375,2.177734375,-0.0390625,-11.328125,15.3515625
7147680816000,0.779296875,-3.44140625,2.380859375,0.92578125,-11.1171875,15.6171875
7147683421000,0.912109375,-3.431640625,2.560546875,1.921875,-10.72265625,15.953125
7147685923000,1.0625,-3.39453125,2.724609375,2.88671875,-10.2734375,16.203125
7147688457000,1.19921875,-3.318359375,2.880859375,2.88671875,-10.34375,16.125
7147691034000,1.326171875,-3.240234375,3.0234375,3.77734375,-9.87109375,16.27734375
7147693549000,1.458984375,-3.142578125,3.12890625,4.6015625,-9.35546875,16.41015625
7147696039000,1.609375,-3.02734375,3.21875,4.59375,-9.43359375,16.33984375
7147698521000,1.775390625,-2.90234375,3.26171875,5.453125,-8.84765625,16.30078125
7147703429000,2.150390625,-2.642578125,3.24609375,5.4375,-9.01171875,16.16015625
7147705997000,2.369140625,-2.494140625,3.203125,7.1328125,-7.26171875,15.54296875
7147710906000,2.83984375,-2.220703125,3.072265625,7.125,-7.41796875,15.43359375
7147713705000,3.072265625,-2.099609375,2.955078125,7.8671875,-6.484375,14.80078125
7147715881000,3.310546875,-2.005859375,2.826171875,8.52734375,-5.54296875,14.11328125
7147718514000,3.529296875,-1.94140625,2.68359375,8.51953125,-5.62109375,14.06640625
7147721077000,3.767578125,-1.8828125,2.52734375,9.13671875,-4.71484375,13.26171875
7147723422000,3.990234375,-1.83203125,2.349609375,9.59765625,-3.859375,12.359375
7147725784000,4.197265625,-1.763671875,2.169921875,10.38671875,-3.06640625,11.6484375
7147730858000,4.583984375,-1.62890625,1.8203125,11.203125,-2.3125,10.9140625
7147738461000,5.041015625,-1.21875,1.2421875,13.296875,-0.5546875,9.2578125
7147745691000,5.265625,-0.537109375,0.603515625,14.45703125,1.66015625,7.578125
7147750724000,5.26171875,-0.294921875,0.37109375,14.5078125,2.40625,6.4921875
7147753457000,5.21484375,0.203125,-0.1640625,14.36328125,2.96875,5.203125
7147758362000,5.15625,0.712890625,-0.7890625,14.36328125,2.96875,5.265625
7147760706000,5.154296875,0.9609375,-1.111328125,14.140625,3.5625,3.82421875
7147763372000,5.154296875,1.21484375,-1.455078125,14.00390625,4.29296875,2.15625
7147765751000,5.166015625,1.453125,-1.802734375,13.953125,5.1015625,0.59375
7147773176000,5.140625,2.07421875,-2.85546875,13.75,5.8828125,-0.8046875
7147780744000,5.064453125,2.427734375,-3.93359375,12.3984375,7.01171875,-3.68359375
7147788285000,4.888671875,2.583984375,-4.87890625,10.265625,7.6796875,-7.984375
7147793198000,4.72265625,2.6640625,-5.3828125,10.2734375,7.921875,-7.8515625
7147795835000,4.609375,2.701171875,-5.59375,9.6796875,7.8515625,-9.20703125
7147798173000,4.453125,2.7109375,-5.759765625,9.2265625,7.8125,-10.2578125
7147800674000,4.248046875,2.724609375,-5.88671875,9.2265625,7.9609375,-10.1953125
7147803386000,4.00390625,2.73828125,-6.01171875,7.828125,7.20703125,-12.47265625
7147805643000,3.74609375,2.759765625,-6.1015625,7.8203125,7.34765625,-12.41015625
