timestamp_ns,gyro_x_rad_s,gyro_y_rad_s,gyro_z_rad_s,linacc_x_m_s2,linacc_y_m_s2,linacc_z_m_s2
2448481063000,-2.220703125,-4.00390625,0.6640625,-10.57421875,-15.515625,-1.17578125
2448483632000,-2.01171875,-4.099609375,0.921875,-10.0859375,-15.66796875,0.171875
2448488842000,-1.6640625,-4.255859375,1.453125,-9.234375,-15.5625,1.30078125
2448495995000,-1.369140625,-4.43359375,2.3828125,-8.17578125,-15.39453125,2.125
2448503618000,-1.2265625,-4.591796875,3.376953125,-5.19140625,-13.75390625,4.41796875
2448506029000,-1.185546875,-4.650390625,3.697265625,-4.12890625,-12.9765625,5.25390625
2448508777000,-1.185546875,-4.72265625,4.021484375,-4.08203125,-13.078125,5.14453125
2448511138000,-1.189453125,-4.8046875,4.353515625,-2.83984375,-12.13671875,5.67578125
2448515962000,-1.181640625,-4.9296875,4.953125,-2.74609375,-12.36328125,5.45703125
2448518951000,-1.169921875,-4.966796875,5.208984375,-1.3125,-11.375,6.15234375
2448521078000,-1.126953125,-5.0,5.455078125,-0.1875,-10.15234375,6.6640625
2448523517000,-1.072265625,-5.033203125,5.65625,1.30859375,-8.88671875,7.33984375
2448530936000,-0.837890625,-4.9296875,6.107421875,3.01953125,-8.03515625,7.65625
2448535864000,-0.544921875,-4.869140625,6.27734375,4.55859375,-4.93359375,7.8359375
2448546018000,0.59765625,-5.0546875,6.16796875,8.3203125,-0.765625,6.6875
2448550857000,1.263671875,-5.0625,5.904296875,8.328125,-1.0390625,6.453125
2448553431000,1.611328125,-5.076171875,5.701171875,9.421875,0.37890625,6.8046875
2448555874000,1.939453125,-5.052734375,5.44921875,10.33203125,1.94140625,6.90625
2448558343000,2.2578125,-4.93359375,5.158203125,10.32421875,1.81640625,6.7890625
2448560941000,2.544921875,-4.8125,4.802734375,11.58203125,5.87109375,8.09765625
2448565882000,3.025390625,-4.337890625,3.916015625,12.421875,7.66796875,8.7421875
2448573514000,3.365234375,-3.283203125,2.015625,12.5703125,10.45703125,10.078125
2448582343000,3.44921875,-2.349609375,-0.2890625,12.9375,11.1953125,9.55859375
2448585832000,3.537109375,-1.73046875,-1.857421875,12.953125,11.2421875,9.50390625
2448588738000,3.62109375,-1.404296875,-2.59765625,13.36328125,10.85546875,8.875
2448590855000,3.73828125,-1.091796875,-3.30078125,13.78125,10.23828125,8.31640625
2448593303000,3.869140625,-0.751953125,-3.951171875,13.796875,10.32421875,8.31640625
2448595849000,4.015625,-0.431640625,-4.564453125,14.37109375,9.6640625,7.65234375
2448598343000,4.1640625,-0.083984375,-5.09375,15.0078125,8.87890625,6.85546875
2448600669000,4.318359375,0.255859375,-5.568359375,15.2890625,8.05078125,6.00390625
2448603349000,4.43359375,0.58203125,-6.001953125,15.3125,8.19140625,6.03515625
2448605849000,4.515625,0.880859375,-6.376953125,15.13671875,7.2734375,5.234375
2448608290000,4.57421875,1.166015625,-6.703125,14.55859375,6.24609375,4.4296875
2448613346000,4.5703125,1.66796875,-7.23046875,14.57421875,6.58984375,4.515625
2448616210000,4.52734375,1.935546875,-7.419921875,14.03515625,5.7109375,3.73046875
2448618273000,4.470703125,2.181640625,-7.5859375,13.09375,4.82421875,2.75390625
2448620819000,4.390625,2.4140625,-7.73046875,12.08984375,3.9296875,1.4375
2448623239000,4.349609375,2.654296875,-7.8515625,11.19921875,2.96875,-0.34765625
2448628173000,4.294921875,3.19921875,-8.013671875,10.28515625,2.30859375,-2.12109375
2448636900000,4.12109375,4.048828125,-8.046875,7.69140625,1.5703125,-5.140625
2448644790000,3.576171875,4.751953125,-7.76171875,5.19921875,1.296875,-7.69140625
2448648132000,2.94921875,5.119140625,-7.384765625,4.3203125,1.08203125,-9.05859375
2448650795000,2.5546875,5.27734375,-7.166015625,3.68359375,0.33203125,-10.375
2448653334000,2.115234375,5.376953125,-6.875,3.62109375,0.50390625,-10.265625
2448655648000,1.646484375,5.447265625,-6.611328125,2.9140625,-0.3828125,-11.5546875
2448658166000,1.189453125,5.455078125,-6.26953125,2.01953125,-1.26171875,-13.09375
2448663071000,0.30078125,5.3828125,-5.564453125,1.89453125,-0.98828125,-12.859375
2448668173000,-0.47265625,5.27734375,-4.775390625,-0.56640625,-2.6953125,-16.234375
2448675518000,-1.61328125,4.9375,-3.5234375,-2.0390625,-3.56640625,-17.42578125
2448682999000,-2.896484375,4.34375,-2.298828125,-5.62890625,-6.23046875,-18.7421875
2448685639000,-3.3203125,4.126953125,-1.900390625,-6.69140625,-7.01171875,-18.63671875
2448690466000,-4.146484375,3.591796875,-1.166015625,-6.77734375,-6.99609375,-18.41015625
2448693198000,-4.521484375,3.26953125,-0.8203125,-7.765625,-7.87109375,-17.87109375
2448695472000,-4.87890625,2.890625,-0.46484375,-8.4375,-8.57421875,-17.15625
2448698203000,-5.203125,2.47265625,-0.119140625,-8.4609375,-8.60546875,-17.046875
2448700753000,-5.501953125,2.025390625,0.244140625,-8.859375,-9.1015625,-16.04296875
2448703090000,-5.77734375,1.513671875,0.61328125,-9.07421875,-9.13671875,-14.7109375
2448710564000,-6.373046875,0.046875,1.748046875,-9.0,-9.08203125,-13.20703125
2448718070000,-6.611328125,-1.28125,2.705078125,-8.296875,-9.1328125,-10.12890625
2448725727000,-6.5625,-2.455078125,3.40234375,-6.9453125,-9.1875,-5.1015625
2448730530000,-6.380859375,-3.037109375,3.748046875,-6.8515625,-9.4609375,-5.140625
2448733125000,-6.2734375,-3.263671875,3.880859375,-6.2890625,-9.45703125,-3.5625
2448735530000,-6.1484375,-3.462890625,3.98828125,-5.83203125,-9.50390625,-2.1015625
2448738029000,-5.994140625,-3.640625,4.091796875,-5.77734375,-9.65234375,-2.15625
2448740443000,-5.83984375,-3.798828125,4.169921875,-5.28125,-9.36328125,0.48828125
2448745536000,-5.486328125,-4.09765625,4.302734375,-4.91796875,-9.5625,1.54296875
2448753089000,-4.7890625,-4.48828125,4.4375,-4.0234375,-9.65234375,3.3046875
2448762021000,-3.904296875,-4.8359375,4.556640625,-2.80078125,-9.703125,5.08984375
2448765484000,-3.255859375,-5.005859375,4.638671875,-2.72265625,-9.96875,4.86328125
2448767770000,-2.94140625,-5.07421875,4.6953125,-1.984375,-9.84765625,5.6640625
2448770518000,-2.619140625,-5.12109375,4.708984375,-1.24609375,-9.48046875,6.48828125
2448773009000,-2.27734375,-5.150390625,4.74609375,-1.21484375,-9.60546875,6.37109375
2448775390000,-1.9453125,-5.1484375,4.767578125,-0.484375,-8.96875,7.08203125
2448777960000,-1.607421875,-5.13671875,4.75390625,0.1796875,-8.171875,7.54296875
2448780420000,-1.26171875,-5.095703125,4.755859375,1.1328125,-7.296875,8.0390625
2448782773000,-0.9375,-5.03125,4.716796875,2.0859375,-6.578125,8.26953125
2448787880000,-0.294921875,-4.7734375,4.623046875,3.0,-5.83203125,8.25
2448795362000,0.546875,-4.126953125,4.3671875,4.765625,-3.6875,8.1484375
2448804673000,1.134765625,-3.298828125,4.001953125,5.265625,-1.48828125,7.81640625
2448807655000,1.3984375,-2.775390625,3.65625,5.2578125,-1.66015625,7.69140625
2448810381000,1.490234375,-2.541015625,3.45703125,5.15234375,-0.83203125,7.42578125
2448812786000,1.5703125,-2.330078125,3.24609375,5.109375,-0.23046875,7.32421875
2448815193000,1.642578125,-2.140625,3.005859375,5.1015625,-0.30078125,7.28515625
2448817902000,1.6796875,-1.984375,2.751953125,5.140625,0.0703125,7.171875
2448820301000,1.740234375,-1.8359375,2.49609375,5.15234375,0.28125,6.9375
2448822845000,1.80859375,-1.681640625,2.23828125,5.19140625,0.41796875,6.5625
2448825302000,1.89453125,-1.533203125,1.96484375,5.18359375,0.37890625,6.53125
2448827689000,2.0234375,-1.400390625,1.66796875,5.2890625,0.4765625,6.25
2448830350000,2.140625,-1.27734375,1.384765625,5.28125,0.4453125,6.2265625
2448832670000,2.30859375,-1.177734375,1.119140625,5.55078125,0.52734375,6.171875
2448835289000,2.4765625,-1.083984375,0.85546875,5.54296875,0.51953125,6.15625
2448837768000,2.6875,-1.005859375,0.552734375,6.0390625,0.62890625,6.234375
2448840273000,2.919921875,-0.92578125,0.2890625,6.703125,0.62890625,6.32421875
2448842738000,3.185546875,-0.830078125,0.001953125,7.390625,0.7734375,6.52734375
2448850240000,3.974609375,-0.4296875,-0.810546875,9.140625,1.5390625,7.35546875
2448855225000,4.501953125,-0.015625,-1.328125,9.8359375,1.74609375,7.55078125
2448867127000,5.572265625,1.095703125,-2.4921875,10.8359375,1.9140625,7.01953125
2448870128000,6.087890625,1.724609375,-3.150390625,10.859375,2.0703125,7.13671875
2448872600000,6.34765625,2.05078125,-3.486328125,10.9921875,2.1953125,6.0234375
2448875178000,6.583984375,2.39453125,-3.828125,10.90625,2.2578125,4.51953125
2448878137000,6.80078125,2.74609375,-4.146484375,10.9140625,2.390625,4.62109375
2448882727000,7.154296875,3.486328125,-4.76953125,10.625,2.82421875,2.93359375
2448885363000,7.22265625,3.859375,-5.048828125,9.96484375,3.48046875,0.91796875
2448887638000,7.19140625,4.220703125,-5.302734375,8.78515625,4.3515625,-0.9140625
2448890303000,7.041015625,4.552734375,-5.52734375,7.5234375,5.25390625,-2.328125
2448892822000,6.74609375,4.84375,-5.654296875,7.5,5.41796875,-2.203125
2448895134000,6.30078125,5.076171875,-5.71875,7.00390625,6.03125,-3.609375
2448898031000,5.775390625,5.341796875,-5.705078125,6.98046875,6.2265625,-3.4609375
2448900184000,5.126953125,5.642578125,-5.66015625,6.40234375,5.8359375,-7.7734375
2448904975000,3.658203125,6.234375,-5.37109375,6.33203125,6.1484375,-7.5
2448907506000,2.896484375,6.466796875,-5.173828125,4.87109375,5.73046875,-10.05078125
2448910045000,2.068359375,6.64453125,-4.951171875,2.890625,5.234375,-12.48828125
2448912535000,1.25390625,6.779296875,-4.69921875,2.84375,5.34375,-12.35546875
2448915080000,0.4296875,6.845703125,-4.4375,0.89453125,4.84765625,-14.51953125
2448917809000,-0.435546875,6.783203125,-4.15625,-1.16796875,4.37109375,-15.8984375
2448920084000,-1.291015625,6.65234375,-3.8671875,-2.7734375,3.96484375,-16.9140625
2448924991000,-3.060546875,6.197265625,-3.208984375,-3.81640625,3.8046875,-17.73828125
2448932608000,-5.380859375,5.26171875,-2.091796875,-4.76171875,2.95703125,-20.3203125
2448941629000,-6.90625,3.94140625,-1.078125,-5.8046875,1.96484375,-20.16015625
2448945028000,-7.458984375,2.89453125,-0.6484375,-6.2734375,1.46875,-19.25
2448947461000,-7.603515625,2.37109375,-0.474609375,-6.57421875,1.16796875,-18.2421875
2448952574000,-7.677734375,1.259765625,-0.2578125,-6.61328125,1.00390625,-18.140625
2448955384000,-7.626953125,0.6953125,-0.15625,-6.87890625,1.10546875,-16.63671875
2448957474000,-7.568359375,0.146484375,-0.052734375,-6.953125,1.23046875,-14.62890625
2448960020000,-7.48828125,-0.392578125,0.02734375,-6.65625,1.0,-12.5546875
2448962433000,-7.375,-0.892578125,0.123046875,-6.28515625,0.1875,-10.80859375
2448967378000,-7.115234375,-1.81640625,0.296875,-6.16015625,-0.7578125,-9.1328125
2448976183000,-6.556640625,-2.98828125,0.5390625,-6.20703125,-3.12890625,-5.9453125
2448984033000,-5.740234375,-3.826171875,0.673828125,-6.17578125,-5.15234375,-2.91796875
2448987512000,-5.05859375,-4.193359375,0.73046875,-5.859375,-5.90234375,-1.79296875
2448990072000,-4.689453125,-4.318359375,0.75,-5.53515625,-6.3671875,-0.52734375
2448992332000,-4.30078125,-4.4453125,0.7734375,-5.49609375,-6.4296875,-0.62890625
2448994900000,-3.931640625,-4.55078125,0.814453125,-5.08203125,-6.80859375,0.6875
2448997214000,-3.5703125,-4.654296875,0.861328125,-4.640625,-7.15234375,2.04296875
2448999912000,-3.212890625,-4.728515625,0.8984375,-4.6015625,-7.19921875,1.93359375
2449002447000,-2.873046875,-4.826171875,0.9453125,-4.2421875,-7.47265625,3.3203125
2449007332000,-2.236328125,-4.939453125,1.0078125,-4.1640625,-7.56640625,3.09375
2449010153000,-1.931640625,-4.986328125,1.0390625,-3.828125,-7.73046875,4.296875
2449012400000,-1.630859375,-5.02734375,1.052734375,-3.59765625,-7.8203125,5.34765625
2449015055000,-1.328125,-5.056640625,1.07421875,-3.18359375,-7.84765625,6.0078125
2449017319000,-1.0234375,-5.06640625,1.099609375,-3.15234375,-7.87890625,5.8984375
2449019810000,-0.748046875,-5.06640625,1.125,-2.6328125,-7.95703125,6.57421875
2449022589000,-0.45703125,-5.056640625,1.158203125,-2.125,-7.9609375,7.12890625
2449029760000,0.3046875,-4.970703125,1.240234375,-0.984375,-7.953125,7.953125
2449034873000,0.751953125,-4.88671875,1.275390625,-0.46875,-7.98828125,8.3359375
2449045058000,1.4453125,-4.7109375,1.3203125,0.76171875,-7.70703125,9.203125
2449049747000,1.673828125,-4.48046875,1.373046875,1.94140625,-7.1875,9.9453125
2449052098000,1.7890625,-4.296875,1.39453125,3.1484375,-6.7109375,10.484375
2449054873000,1.87109375,-4.046875,1.40234375,4.46875,-6.390625,10.86328125
2449057357000,1.958984375,-3.771484375,1.419921875,4.4765625,-6.421875,10.78515625
2449059734000,2.05078125,-3.42578125,1.421875,5.87109375,-6.07421875,11.0
2449062172000,2.142578125,-3.041015625,1.416015625,7.0859375,-5.5390625,11.171875
2449064784000,2.23828125,-2.611328125,1.400390625,8.00390625,-4.73828125,11.171875
2449069725000,2.47265625,-1.69921875,1.298828125,8.484375,-4.12109375,10.9609375
2449077231000,2.927734375,-0.45703125,0.943359375,8.4375,-3.03515625,9.91015625
2449084790000,3.484375,0.435546875,0.287109375,7.97265625,-2.140625,8.40625
2449087253000,3.705078125,0.640625,0.02734375,7.7890625,-1.60546875,7.25
2449089698000,3.935546875,0.828125,-0.267578125,7.7890625,-1.58984375,7.2890625
2449092079000,4.203125,0.958984375,-0.568359375,7.51953125,-0.9609375,5.89453125
2449097312000,4.806640625,1.0859375,-1.20703125,7.51953125,-0.8984375,5.98046875
2449099979000,5.12109375,1.083984375,-1.5390625,7.0234375,0.11328125,2.875
2449104499000,5.7890625,0.931640625,-2.2265625,7.03125,0.23046875,2.953125
2449107227000,6.16015625,0.787109375,-2.591796875,6.76171875,0.69140625,1.35546875
2449109471000,6.505859375,0.595703125,-2.923828125,6.4140625,1.15625,0.15625
2449112062000,6.83984375,0.369140625,-3.294921875,6.421875,1.2578125,0.1875
2449114635000,7.166015625,0.146484375,-3.6484375,6.2578125,1.625,-0.6015625
2449117092000,7.443359375,-0.060546875,-3.998046875,6.55078125,1.87890625,-1.07421875
2449120018000,7.69921875,-0.224609375,-4.349609375,7.0390625,2.01953125,-1.4140625
2449127201000,8.10546875,-0.328125,-5.3125,7.5390625,2.109375,-2.21875
2449132087000,8.0390625,-0.095703125,-5.78125,7.6796875,2.28515625,-2.81640625
2449143877000,7.037109375,0.84375,-6.244140625,6.87890625,3.76171875,-5.15625
2449147129000,6.2109375,1.408203125,-6.263671875,6.84765625,4.10546875,-5.125
2449149464000,5.712890625,1.701171875,-6.26171875,6.0,4.01171875,-7.66015625
2449152002000,5.21875,1.984375,-6.240234375,5.9609375,4.18359375,-7.64453125
2449154462000,4.73828125,2.228515625,-6.220703125,5.9375,4.35546875,-7.60546875
2449156937000,4.25,2.431640625,-6.17578125,5.2265625,4.0234375,-9.171875
2449159539000,3.80859375,2.62109375,-6.1640625,4.24609375,3.49609375,-10.984375
2449162014000,3.390625,2.76953125,-6.130859375,3.1640625,2.79296875,-12.9765625
2449164431000,3.0390625,2.875,-6.09765625,3.1171875,2.95703125,-12.9296875
2449166975000,2.693359375,2.9609375,-6.05078125,1.9296875,2.0546875,-14.97265625
2449169390000,2.35546875,3.017578125,-5.984375,1.8828125,2.1953125,-14.91796875
2449171948000,2.01953125,3.01171875,-5.89453125,0.7734375,1.2109375,-16.4609375
2449174629000,1.638671875,2.95703125,-5.787109375,0.7265625,1.359375,-16.40625
2449176973000,1.244140625,2.828125,-5.646484375,-0.6484375,0.15625,-17.1953125
2449179487000,0.8203125,2.67578125,-5.462890625,-2.0546875,-0.8046875,-17.28515625
2449181749000,0.359375,2.46484375,-5.2421875,-3.046875,-1.80859375,-17.23046875
2449189399000,-0.853515625,1.734375,-4.32421875,-4.25,-3.44921875,-17.15625
2449194710000,-1.35546875,1.19140625,-3.548828125,-4.3671875,-4.0390625,-16.95703125
2449202057000,-1.54296875,0.439453125,-2.439453125,-4.421875,-4.15234375,-15.60546875
2449204473000,-1.5078125,0.185546875,-2.13671875,-4.703125,-3.69140625,-14.18359375
2449209243000,-1.39453125,-0.3125,-1.6796875,-4.734375,-3.63671875,-14.16015625
2449211995000,-1.341796875,-0.544921875,-1.55078125,-5.21875,-3.01953125,-12.4765625
2449214520000,-1.30078125,-0.78125,-1.458984375,-5.58203125,-2.421875,-10.4296875
2449216769000,-1.287109375,-0.994140625,-1.41015625,-5.58984375,-2.3984375,-10.4375
2449219380000,-1.28125,-1.18359375,-1.4140625,-5.921875,-2.00390625,-8.453125
2449221950000,-1.26953125,-1.373046875,-1.435546875,-6.20703125,-1.7890625,-6.70703125
2449224515000,-1.2265625,-1.5234375,-1.482421875,-6.4453125,-1.7578125,-5.20703125
2449229517000,-1.056640625,-1.845703125,-1.55078125,-6.453125,-1.71875,-5.25390625
2449232256000,-0.927734375,-1.9921875,-1.587890625,-6.47265625,-1.90625,-3.8984375
2449234127000,-0.794921875,-2.12890625,-1.60546875,-6.35546875,-2.19921875,-2.64453125
2449236729000,-0.611328125,-2.279296875,-1.60546875,-6.35546875,-2.17578125,-2.68359375
2449239353000,-0.44140625,-2.421875,-1.60546875,-5.73046875,-2.98046875,-0.30859375
2449241702000,-0.298828125,-2.576171875,-1.58984375,-5.73046875,-2.94921875,-0.35546875
2449244277000,-0.162109375,-2.712890625,-1.56640625,-5.73046875,-2.91796875,-0.41015625
2449246960000,-0.04296875,-2.822265625,-1.544921875,-5.46484375,-3.21875,0.80859375
2449249266000,0.052734375,-2.935546875,-1.5234375,-5.4453125,-3.46875,1.890625
2449251833000,0.130859375,-3.0234375,-1.5,-5.453125,-3.4375,1.828125
2449254130000,0.19921875,-3.103515625,-1.484375,-5.546875,-3.73046875,2.87890625
2449256765000,0.255859375,-3.16796875,-1.46875,-5.546875,-3.69140625,2.80859375
2449259423000,0.31640625,-3.22265625,-1.44140625,-5.76953125,-4.60546875,4.546875
2449264271000,0.390625,-3.345703125,-1.37109375,-5.75,-5.13671875,5.23828125
2449271794000,0.4765625,-3.544921875,-1.123046875,-5.375,-6.01953125,6.62109375
2449280466000,0.57421875,-3.662109375,-0.69921875,-4.2265625,-6.59765625,7.81640625
2449284241000,0.65625,-3.669921875,-0.333984375,-4.2109375,-6.58203125,7.65234375
2449286754000,0.671875,-3.666015625,-0.142578125,-3.55078125,-6.796875,8.29296875
2449289116000,0.69921875,-3.658203125,0.06640625,-2.98828125,-7.046875,8.91796875
2449291661000,0.7265625,-3.640625,0.255859375,-2.98046875,-7.046875,8.83984375
2449294066000,0.72265625,-3.625,0.484375,-2.37109375,-7.28515625,9.421875
2449296770000,0.740234375,-3.58203125,0.677734375,-1.73046875,-7.5,9.98046875
2449299461000,0.73828125,-3.544921875,0.90625,-1.0625,-7.6796875,10.32421875
2449304006000,0.71484375,-3.474609375,1.115234375,-0.28125,-7.63671875,10.54296875
2449306654000,0.69921875,-3.298828125,1.56640625,-0.2421875,-7.69140625,10.38671875
2449309086000,0.677734375,-3.181640625,1.802734375,0.671875,-7.50390625,10.56640625
2449311645000,0.67578125,-3.05078125,2.03125,1.7109375,-7.12109375,10.71875
2449314242000,0.63671875,-2.888671875,2.275390625,1.734375,-7.16796875,10.6484375
2449316633000,0.58984375,-2.70703125,2.533203125,2.90625,-6.609375,10.69140625
2449319513000,0.533203125,-2.52734375,2.775390625,4.0,-5.828125,10.84375
2449321804000,0.46875,-2.326171875,3.0,5.0,-4.75390625,10.98828125
2449324142000,0.388671875,-2.10546875,3.248046875,5.0234375,-4.82421875,10.93359375
2449326524000,0.302734375,-1.884765625,3.4765625,5.875,-3.6875,10.83984375
2449329062000,0.240234375,-1.63671875,3.66015625,6.625,-2.4921875,10.68359375
2449331613000,0.169921875,-1.365234375,3.81640625,6.65625,-2.578125,10.65234375
2449334046000,0.0546875,-1.0859375,3.978515625,6.6875,-2.6640625,10.62109375
2449336532000,-0.03515625,-0.76171875,4.10546875,7.53125,-1.27734375,10.6171875
2449339047000,-0.189453125,-0.453125,4.205078125,8.38671875,-0.0390625,10.87890625
2449341680000,-0.365234375,-0.12109375,4.2890625,8.9609375,0.77734375,11.0234375
2449346706000,-0.765625,0.58984375,4.32421875,9.75,1.37890625,10.84375
2449354072000,-1.294921875,1.80859375,4.13671875,11.09375,2.734375,10.10546875
2449361585000,-1.787109375,3.013671875,3.77734375,11.70703125,4.046875,7.93359375
2449366201000,-1.93359375,3.404296875,3.650390625,11.5390625,4.83203125,6.73828125
2449368966000,-2.22265625,4.04296875,3.390625,10.95703125,5.5,5.671875
2449374070000,-2.5078125,4.474609375,3.09375,10.99609375,5.3359375,5.90625
2449376709000,-2.64453125,4.619140625,2.923828125,10.21875,6.00390625,4.87109375
2449378927000,-2.76953125,4.732421875,2.7578125,9.546875,6.46875,3.75390625
2449381584000,-2.876953125,4.833984375,2.572265625,9.1796875,6.62109375,2.98046875
2449389006000,-3.212890625,5.12890625,1.91796875,9.41796875,6.29296875,2.71875
2449396398000,-3.603515625,5.880859375,1.1796875,9.84765625,5.98046875,1.3125
2449403804000,-4.193359375,6.7421875,0.48828125,8.375,6.02734375,-2.16796875
2449408797000,-4.802734375,7.13671875,0.126953125,8.3046875,5.96484375,-1.81640625
2449411536000,-5.13671875,7.2890625,-0.013671875,7.9609375,5.9140625,-3.0078125
2449413853000,-5.47265625,7.41796875,-0.130859375,7.89453125,5.76953125,-4.609375
2449416327000,-5.798828125,7.51171875,-0.21875,7.84765625,5.74609375,-4.4296875
2449418799000,-6.07421875,7.55078125,-0.283203125,7.31640625,5.11328125,-8.1640625
2449423820000,-6.490234375,7.509765625,-0.361328125,6.484375,4.65234375,-9.82421875
2449431306000,-6.47265625,7.005859375,-0.376953125,3.5234375,4.94921875,-14.40234375
2449440567000,-5.369140625,6.0,-0.42578125,0.765625,5.2578125,-18.203125
2449443823000,-4.294921875,5.05078125,-0.552734375,0.6328125,5.171875,-17.953125
2449446745000,-3.7578125,4.5390625,-0.65625,-0.05859375,5.390625,-18.66015625
2449448663000,-3.275390625,4.0390625,-0.734375,-0.30078125,5.7890625,-18.78125
2449451331000,-2.8046875,3.568359375,-0.833984375,-0.35546875,5.765625,-18.6953125
2449453844000,-2.419921875,3.140625,-0.939453125,-0.35546875,6.05859375,-18.67578125
2449456310000,-2.119140625,2.74609375,-1.0390625,-0.46875,6.44140625,-18.48828125
2449458826000,-1.92578125,2.37890625,-1.12890625,-0.8828125,6.76953125,-17.75390625
2449461338000,-1.833984375,2.03515625,-1.22265625,-1.44921875,7.0859375,-16.87109375
2449463796000,-1.83984375,1.716796875,-1.2734375,-1.47265625,7.0859375,-16.83203125
2449466283000,-1.9375,1.427734375,-1.337890625,-2.06640625,7.1875,-15.97265625
2449471290000,-2.32421875,0.916015625,-1.396484375,-2.10546875,7.1796875,-15.91796875
2449474015000,-2.56640625,0.669921875,-1.416015625,-2.6796875,6.93359375,-15.23046875
2449476176000,-2.833984375,0.43359375,-1.427734375,-3.23046875,6.390625,-14.69140625
2449478797000,-3.107421875,0.1875,-1.416015625,-3.60546875,5.60546875,-14.0703125
2449481200000,-3.390625,-0.07421875,-1.384765625,-3.8125,4.73828125,-13.3046875
2449483758000,-3.64453125,-0.341796875,-1.3359375,-3.8125,4.70703125,-13.296875
2449486314000,-3.900390625,-0.607421875,-1.265625,-4.1328125,3.69140625,-12.4609375
2449488690000,-4.130859375,-0.861328125,-1.177734375,-4.59375,2.62109375,-11.37890625
2449491214000,-4.333984375,-1.130859375,-1.107421875,-4.5859375,2.58203125,-11.39453125
2449493567000,-4.529296875,-1.36328125,-1.0234375,-4.578125,2.55078125,-11.40234375
2449496115000,-4.6640625,-1.578125,-0.953125,-5.0625,1.5,-10.40234375
2449498707000,-4.771484375,-1.763671875,-0.90234375,-5.48046875,0.41796875,-9.33203125
2449501189000,-4.845703125,-1.93359375,-0.84375,-5.92578125,-0.49609375,-8.2421875
2449503610000,-4.892578125,-2.09765625,-0.7734375,-5.90234375,-0.54296875,-8.28125
2449506291000,-4.916015625,-2.267578125,-0.7265625,-6.2265625,-1.68359375,-7.18359375
2449508594000,-4.921875,-2.427734375,-0.6640625,-6.203125,-1.73046875,-7.22265625
2449511153000,-4.92578125,-2.623046875,-0.591796875,-6.4609375,-2.9453125,-6.1015625
2449513816000,-4.921875,-2.8203125,-0.521484375,-6.4296875,-3.0,-6.1484375
2449516166000,-4.916015625,-3.0390625,-0.431640625,-6.65625,-4.2109375,-5.0234375
2449518699000,-4.880859375,-3.275390625,-0.318359375,-6.90625,-5.4140625,-4.04296875
2449521330000,-4.822265625,-3.501953125,-0.201171875,-7.13671875,-6.578125,-3.05078125
2449528621000,-4.49609375,-4.25390625,0.197265625,-7.30078125,-7.7578125,-2.19140625
2449533511000,-4.158203125,-4.79296875,0.53125,-7.3359375,-9.78125,-0.75
2449545566000,-3.396484375,-5.896484375,1.34765625,-5.87109375,-12.5234375,1.99609375
2449548561000,-3.01953125,-6.400390625,1.763671875,-5.75390625,-12.6484375,1.72265625
2449551101000,-2.814453125,-6.59375,1.95703125,-5.15625,-13.12109375,2.80078125
2449553761000,-2.625,-6.75,2.16015625,-4.5,-13.37109375,3.87890625
2449556203000,-2.40234375,-6.875,2.34375,-4.453125,-13.44140625,3.73046875
2449558552000,-2.173828125,-6.958984375,2.51171875,-3.44921875,-13.68359375,4.83203125
2449561089000,-1.935546875,-6.98828125,2.669921875,-2.26171875,-13.7734375,5.9765625
2449568503000,-1.251953125,-6.83203125,3.04296875,-0.8828125,-13.828125,6.765625
2449572960000,-1.03125,-6.685546875,3.12890625,1.3203125,-13.12890625,8.91015625
2449583547000,-0.154296875,-5.638671875,3.521484375,3.51171875,-10.953125,10.60546875
2449588362000,0.09765625,-5.1484375,3.658203125,3.51953125,-11.1171875,10.35546875
2449591036000,0.20703125,-4.8828125,3.712890625,4.29296875,-10.26171875,10.7734375
2449593498000,0.30859375,-4.595703125,3.73828125,5.23046875,-9.44921875,11.11328125
2449596243000,0.419921875,-4.287109375,3.767578125,5.9140625,-8.8515625,11.26171875
2449598666000,0.515625,-3.970703125,3.78125,6.796875,-8.08984375,11.55078125
2449603588000,0.6875,-3.259765625,3.724609375,7.42578125,-7.41796875,11.68359375
2449611104000,0.9140625,-2.125,3.533203125,7.80859375,-5.7734375,11.484375
2449619971000,1.169921875,-1.107421875,3.169921875,8.19921875,-4.03515625,11.07421875
2449623417000,1.373046875,-0.4765625,2.884765625,8.16796875,-4.16796875,11.05859375
2449625941000,1.50390625,-0.19140625,2.70703125,8.546875,-3.70703125,10.9140625
2449628409000,1.64453125,0.09375,2.53515625,8.76953125,-3.6171875,10.5
2449631055000,1.8359375,0.380859375,2.3515625,8.9296875,-3.7109375,9.765625
2449633298000,2.064453125,0.646484375,2.158203125,8.90625,-3.7578125,9.7890625
2449635823000,2.326171875,0.916015625,1.943359375,9.00390625,-3.91015625,8.73828125
2449638677000,2.626953125,1.154296875,1.740234375,8.86328125,-4.0546875,7.62890625
2449640841000,2.96875,1.376953125,1.515625,8.68359375,-4.10546875,6.27734375
2449643634000,3.373046875,1.5546875,1.27734375,8.66796875,-4.12890625,6.33984375
2449645817000,3.791015625,1.728515625,1.02734375,8.65234375,-3.87890625,4.8125
2449650849000,4.66796875,1.970703125,0.541015625,8.62890625,-3.89453125,4.96875
2449653625000,5.111328125,2.046875,0.291015625,8.62890625,-3.4921875,3.671875
2449655836000,5.537109375,2.140625,0.0546875,8.85546875,-2.82421875,2.22265625
2449658493000,5.927734375,2.265625,-0.166015625,9.46875,-1.86328125,0.9140625
2449660823000,6.27734375,2.40625,-0.375,10.015625,-0.78515625,0.18359375
2449665690000,6.65625,2.798828125,-0.712890625,10.1328125,0.2890625,-0.296875
2449673182000,6.376953125,3.7421875,-1.115234375,9.0078125,2.88671875,-2.08203125
2449682016000,5.16015625,5.01171875,-1.318359375,7.515625,5.51953125,-6.015625
2449685679000,3.978515625,5.740234375,-1.2890625,7.46875,5.64453125,-5.71875
2449688310000,3.279296875,6.06640625,-1.208984375,6.87109375,6.9375,-7.765625
2449690899000,2.56640625,6.337890625,-1.107421875,6.41015625,8.015625,-10.015625
2449693153000,1.853515625,6.564453125,-0.990234375,6.36328125,8.046875,-9.875
2449695694000,1.12890625,6.744140625,-0.857421875,5.7734375,8.8828125,-12.33203125
2449698095000,0.4375,6.87890625,-0.7578125,5.04296875,9.671875,-14.40625
2449700691000,-0.259765625,6.904296875,-0.63671875,4.0703125,10.62890625,-16.046875
2449708336000,-2.259765625,6.4140625,-0.416015625,1.52734375,12.32421875,-18.6875
2449713172000,-3.35546875,5.701171875,-0.380859375,0.234375,12.97265625,-19.59375
2449725018000,-4.58203125,3.875,-0.552734375,-0.6328125,13.03515625,-19.8984375
2449728220000,-4.734375,2.921875,-0.75,-0.703125,12.96484375,-19.828125
2449730740000,-4.73828125,2.474609375,-0.865234375,-0.82421875,12.69921875,-18.96875
2449733179000,-4.697265625,2.03125,-0.96875,-1.10546875,12.4765625,-17.49609375
2449735775000,-4.611328125,1.63671875,-1.11328125,-1.12890625,12.4453125,-17.48828125
2449738147000,-4.48046875,1.263671875,-1.271484375,-1.50390625,11.81640625,-15.83203125
2449740606000,-4.3125,0.939453125,-1.43359375,-1.98828125,11.06640625,-14.34375
2449743174000,-4.083984375,0.638671875,-1.611328125,-2.765625,10.140625,-12.93359375
2449748507000,-3.470703125,0.07421875,-2.001953125,-3.34375,8.74609375,-11.10546875
2449755639000,-2.4765625,-0.634765625,-2.509765625,-3.4921875,5.93359375,-7.53125
2449763201000,-1.6953125,-1.232421875,-2.8046875,-4.23828125,3.1484375,-4.234375
2449765686000,-1.529296875,-1.375,-2.853515625,-4.8125,1.75,-2.765625
2449768129000,-1.376953125,-1.50390625,-2.861328125,-4.78125,1.796875,-2.8125
2449770466000,-1.2421875,-1.60546875,-2.865234375,-5.73046875,0.41015625,-1.75
2449775592000,-0.916015625,-1.78125,-2.84765625,-5.66015625,0.49609375,-1.828125
2449778323000,-0.6796875,-1.873046875,-2.853515625,-7.0859375,-2.58984375,-0.38671875
2449783125000,-0.203125,-2.08984375,-2.763671875,-7.0078125,-2.48046875,-0.46484375
2449785480000,0.078125,-2.21875,-2.693359375,-6.83203125,-3.86328125,0.12109375
2449788049000,0.361328125,-2.357421875,-2.5859375,-6.546875,-5.03515625,0.73828125
2449790499000,0.673828125,-2.52734375,-2.498046875,-6.5078125,-4.97265625,0.68359375
2449792863000,0.986328125,-2.689453125,-2.3671875,-6.36328125,-5.73046875,1.30859375
2449795497000,1.310546875,-2.87109375,-2.251953125,-6.21875,-6.26953125,2.01171875
2449798166000,1.626953125,-3.041015625,-2.099609375,-6.03515625,-6.66796875,2.80859375
2449800544000,1.951171875,-3.240234375,-1.962890625,-5.8984375,-7.0078125,3.52734375
2449803171000,2.234375,-3.458984375,-1.828125,-5.859375,-6.9453125,3.46484375
2449805462000,2.560546875,-3.6875,-1.697265625,-5.90625,-7.0703125,4.02734375
2449810493000,3.185546875,-4.16015625,-1.451171875,-5.8203125,-6.953125,3.88671875
2449813373000,3.50390625,-4.4140625,-1.326171875,-5.84375,-6.96875,4.12890625
2449815444000,3.8203125,-4.662109375,-1.234375,-5.41015625,-6.8828125,4.41015625
2449817991000,4.140625,-4.912109375,-1.130859375,-4.58984375,-6.7734375,4.640625
2449820484000,4.4296875,-5.15625,-1.05078125,-3.640625,-6.7265625,4.82421875
2449825480000,4.951171875,-5.5703125,-0.916015625,-2.7109375,-6.54296875,5.015625
2449833166000,5.546875,-6.037109375,-0.83203125,-1.3984375,-6.140625,5.359375
2449841869000,5.923828125,-6.158203125,-0.916015625,0.09765625,-5.484375,6.29296875
2449845328000,6.091796875,-6.03515625,-1.03125,0.88671875,-5.03125,6.75390625
2449848012000,6.140625,-5.91796875,-1.099609375,1.9296875,-4.6015625,7.296875
2449850371000,6.1640625,-5.7265625,-1.166015625,1.953125,-4.5625,7.1796875
2449852948000,6.193359375,-5.533203125,-1.259765625,2.76953125,-4.10546875,7.67578125
2449855442000,6.236328125,-5.33984375,-1.33984375,3.4921875,-3.57421875,7.76171875
2449860430000,6.33984375,-4.9609375,-1.52734375,3.53125,-3.45703125,7.54296875
2449865340000,6.50390625,-4.6015625,-1.759765625,4.48046875,-2.55078125,7.203125
2449872785000,6.77734375,-4.115234375,-2.18359375,4.98046875,-2.0390625,6.953125
2449880369000,6.90625,-3.66796875,-2.669921875,6.52734375,-0.76171875,7.52734375
2449882678000,6.927734375,-3.525390625,-2.8359375,7.03125,-0.5,7.61328125
2449887862000,6.919921875,-3.1953125,-3.19140625,7.0390625,-0.34375,7.45703125
2449890356000,6.908203125,-3.00390625,-3.37109375,7.55859375,-0.02734375,7.4921875
2449892854000,6.85546875,-2.779296875,-3.537109375,8.15234375,0.35546875,7.4296875
2449895379000,6.77734375,-2.54296875,-3.71875,8.15234375,0.44921875,7.359375
2449897703000,6.677734375,-2.251953125,-3.8984375,8.84375,0.859375,7.203125
2449900248000,6.56640625,-1.9453125,-4.076171875,9.265625,1.01953125,6.9765625
2449907856000,6.048828125,-1.025390625,-4.591796875,9.375,1.32421875,6.74609375
2449912171000,5.853515625,-0.720703125,-4.71484375,9.64453125,0.8984375,5.65234375
2449922659000,5.025390625,0.86328125,-4.884765625,8.98828125,-0.56640625,2.0390625
2449927814000,4.66015625,1.349609375,-4.76171875,8.94921875,-0.34765625,2.046875
2449930280000,4.474609375,1.55859375,-4.6640625,8.2421875,-0.9375,0.75
2449932693000,4.2890625,1.771484375,-4.556640625,7.26171875,-1.3359375,-0.4921875
2449935535000,4.064453125,1.978515625,-4.421875,7.23828125,-1.2265625,-0.46875
2449937674000,3.84375,2.171875,-4.275390625,5.5078125,-2.328125,-2.70703125
2449942623000,3.376953125,2.572265625,-3.923828125,4.84765625,-2.7734375,-3.984375
2449950191000,2.826171875,3.216796875,-3.375,3.109375,-3.5078125,-7.54296875
2449959159000,2.333984375,3.6484375,-2.708984375,0.82421875,-3.48046875,-11.1484375
2449962576000,1.962890625,3.71484375,-2.31640625,0.78515625,-3.36328125,-11.0078125
2449965119000,1.734375,3.703125,-2.107421875,-0.41796875,-3.05859375,-12.31640625
2449967666000,1.46484375,3.646484375,-1.9296875,-1.24609375,-2.62109375,-13.1171875
2449970014000,1.177734375,3.6015625,-1.763671875,-1.26171875,-2.57421875,-13.0546875
2449972545000,0.853515625,3.564453125,-1.64453125,-1.78515625,-2.1015625,-13.55078125
2449975069000,0.501953125,3.52734375,-1.51171875,-2.06640625,-1.6328125,-13.69140625
2449977946000,0.158203125,3.5234375,-1.404296875,-2.1953125,-1.18359375,-13.734375
2449982255000,-0.216796875,3.51953125,-1.341796875,-2.328125,-0.96875,-13.77734375
2449986235000,-0.921875,3.53125,-1.21875,-2.43359375,-0.80078125,-13.59765625
2449992558000,-1.849609375,3.46875,-1.083984375,-2.91796875,-0.6875,-13.09375
2450001647000,-2.48046875,3.19921875,-0.93359375,-3.6015625,-0.92578125,-12.2890625
2450005021000,-2.703125,2.970703125,-0.837890625,-3.8828125,-0.94140625,-11.47265625
2450007648000,-2.76953125,2.822265625,-0.802734375,-4.14453125,-0.875,-10.6015625
2450010044000,-2.833984375,2.67578125,-0.76953125,-4.16015625,-0.8671875,-10.5234375
2450012542000,-2.859375,2.501953125,-0.734375,-4.60546875,-0.7265625,-9.859375
2450014915000,-2.861328125,2.29296875,-0.73046875,-5.00390625,-0.5625,-9.11328125
2450017608000,-2.82421875,2.080078125,-0.72265625,-5.01953125,-0.5625,-9.04296875
2450020041000,-2.7578125,1.830078125,-0.703125,-5.41796875,-0.3984375,-8.109375
2450024968000,-2.61328125,1.314453125,-0.705078125,-5.44140625,-0.3984375,-8.0
2450027346000,-2.5078125,1.041015625,-0.71875,-5.6953125,-0.1875,-7.00390625
2450029870000,-2.408203125,0.7890625,-0.701171875,-5.97265625,-0.09375,-5.97265625
2450032573000,-2.3125,0.5234375,-0.71484375,-5.98828125,-0.0859375,-5.93359375
2450034897000,-2.20703125,0.29296875,-0.701171875,-6.1484375,-0.01953125,-4.85546875
2450037481000,-2.119140625,0.046875,-0.701171875,-6.1484375,-0.046875,-3.625
2450040077000,-2.015625,-0.1796875,-0.689453125,-6.01171875,-0.23828125,-2.296875
2450042342000,-1.923828125,-0.384765625,-0.70703125,-5.83984375,-0.4296875,-1.02734375
2450044868000,-1.798828125,-0.58984375,-0.708984375,-5.84765625,-0.4296875,-1.02734375
2450047400000,-1.63671875,-0.76953125,-0.70703125,-5.84765625,-0.4140625,-1.01953125
2450049965000,-1.4609375,-0.91796875,-0.71875,-5.7578125,-0.5859375,-0.00390625
2450052249000,-1.251953125,-1.046875,-0.71875,-5.6171875,-0.66796875,0.94921875
2450054872000,-1.0390625,-1.154296875,-0.7265625,-5.6171875,-0.66796875,0.93359375
2450057423000,-0.78515625,-1.267578125,-0.71875,-5.5703125,-0.7109375,1.71484375
2450060038000,-0.52734375,-1.361328125,-0.7109375,-5.46484375,-0.8828125,2.5
2450067328000,0.21875,-1.654296875,-0.666015625,-5.27734375,-1.06640625,3.22265625
2450074792000,0.87109375,-2.009765625,-0.59765625,-4.78125,-1.515625,4.7265625
2450082344000,1.41796875,-2.359375,-0.46875,-3.953125,-1.8359375,6.87109375
2450087222000,1.873046875,-2.498046875,-0.39453125,-3.9375,-1.8046875,6.73828125
2450090320000,2.1015625,-2.53515625,-0.349609375,-3.6640625,-1.68359375,7.02734375
2450092459000,2.384765625,-2.595703125,-0.318359375,-3.21484375,-1.5234375,7.26171875
2450094715000,2.638671875,-2.6640625,-0.302734375,-3.21484375,-1.5078125,7.18359375
2450097313000,2.8828125,-2.740234375,-0.275390625,-2.703125,-1.2265625,7.5
2450099589000,3.1171875,-2.802734375,-0.26953125,-2.08203125,-0.9921875,7.87109375
2450102149000,3.3125,-2.89453125,-0.2578125,-2.07421875,-0.9765625,7.78515625
2450104860000,3.48828125,-2.9765625,-0.263671875,-1.3671875,-0.72265625,8.2578125
2450107170000,3.638671875,-3.0625,-0.26953125,-0.69140625,-0.27734375,8.6640625
2450109750000,3.791015625,-3.1328125,-0.310546875,-0.69140625,-0.26171875,8.5625
2450112263000,3.966796875,-3.181640625,-0.328125,-0.14453125,0.48046875,8.625
2450114725000,4.140625,-3.208984375,-0.380859375,-0.13671875,0.49609375,8.5234375
2450117344000,4.34375,-3.244140625,-0.423828125,0.609375,2.09375,8.15625
2450119565000,4.54296875,-3.271484375,-0.517578125,0.609375,2.109375,8.046875
2450122240000,4.6953125,-3.28515625,-0.59765625,1.125,2.78515625,7.8359375
2450124732000,4.8828125,-3.326171875,-0.67578125,1.73046875,3.25,7.74609375
2450127361000,4.990234375,-3.3515625,-0.783203125,1.73046875,3.2734375,7.62109375
2450129615000,5.080078125,-3.3828125,-0.87109375,2.35546875,3.4765625,7.70703125
2450132335000,5.119140625,-3.400390625,-1.001953125,3.015625,3.6171875,7.859375
2450134677000,5.119140625,-3.41796875,-1.107421875,3.015625,3.640625,7.7421875
2450137308000,5.103515625,-3.400390625,-1.23046875,3.74609375,3.89453125,7.85546875
2450144867000,4.783203125,-3.08203125,-1.51953125,5.078125,4.45703125,8.16796875
2450149784000,4.451171875,-2.73046875,-1.6953125,5.59765625,4.83984375,7.96875
2450161788000,3.716796875,-1.80078125,-1.9453125,7.1015625,5.78125,7.1015625
2450164770000,3.3125,-1.306640625,-2.03515625,7.5078125,6.0234375,6.71484375
2450167032000,3.130859375,-1.076171875,-2.076171875,7.84765625,6.1484375,6.37109375
2450169541000,2.91796875,-0.845703125,-2.125,7.82421875,6.1796875,6.31640625
2450171911000,2.697265625,-0.626953125,-2.16015625,7.80078125,6.21875,6.26953125
2450174556000,2.478515625,-0.392578125,-2.216796875,8.12109375,6.2421875,5.8203125
2450177123000,2.251953125,-0.181640625,-2.244140625,8.25390625,6.13671875,5.22265625
2450179579000,2.056640625,0.029296875,-2.310546875,8.49609375,5.79296875,4.25390625
2450182047000,1.859375,0.2734375,-2.353515625,8.47265625,5.83984375,4.23828125
2450184611000,1.669921875,0.5234375,-2.421875,8.73046875,5.55078125,3.22265625
2450187067000,1.5078125,0.771484375,-2.482421875,8.69921875,5.58984375,3.21484375
2450189608000,1.34375,1.03125,-2.55859375,8.53125,5.2265625,2.05859375
2450192053000,1.208984375,1.29296875,-2.63671875,8.5078125,5.28125,2.07421875
2450194607000,1.083984375,1.55078125,-2.7265625,8.359375,4.75390625,0.96875
2450197108000,0.919921875,1.810546875,-2.794921875,8.34765625,4.41796875,-0.0234375
2450199519000,0.734375,2.0859375,-2.880859375,8.27734375,4.2421875,-0.7265625
2450204831000,0.294921875,2.681640625,-3.044921875,7.9453125,3.95703125,-1.359375
2450212002000,-0.552734375,3.673828125,-3.2578125,7.359375,2.79296875,-3.375
2450219552000,-1.3984375,4.638671875,-3.365234375,6.0546875,1.24609375,-6.484375
2450224017000,-1.677734375,4.896484375,-3.365234375,4.95703125,0.38671875,-8.1875
2450227051000,-2.138671875,5.22265625,-3.34375,4.87890625,0.51953125,-7.9375
2450229482000,-2.318359375,5.28125,-3.330078125,3.59765625,-0.25390625,-9.76953125
2450231933000,-2.4453125,5.314453125,-3.29296875,2.53125,-1.015625,-11.64453125
2450234569000,-2.544921875,5.30078125,-3.25,2.484375,-0.9453125,-11.50390625
2450237083000,-2.638671875,5.2734375,-3.20703125,1.65234375,-1.59765625,-13.08984375
2450239478000,-2.7421875,5.205078125,-3.16796875,1.0625,-2.08203125,-14.12109375
2450247132000,-3.228515625,4.783203125,-2.94921875,0.3125,-2.5234375,-14.37109375
2450251824000,-3.701171875,4.322265625,-2.740234375,-0.86328125,-3.69921875,-15.21875
2450261911000,-4.546875,3.26171875,-2.03125,-2.859375,-4.90625,-16.609375
2450266808000,-4.900390625,2.650390625,-1.576171875,-2.9375,-4.8671875,-16.3515625
2450269447000,-5.09375,2.314453125,-1.3515625,-3.5625,-5.27734375,-16.1875
2450271730000,-5.28125,1.96484375,-1.115234375,-4.015625,-5.640625,-15.6484375
2450274320000,-5.48046875,1.60546875,-0.88671875,-4.39453125,-5.9765625,-14.6015625
2450277012000,-5.697265625,1.248046875,-0.658203125,-4.41796875,-6.0,-14.484375
2450279246000,-5.896484375,0.900390625,-0.453125,-4.828125,-6.2421875,-13.234375
2450281871000,-6.08984375,0.5859375,-0.236328125,-4.8359375,-6.265625,-13.125
2450284196000,-6.255859375,0.279296875,-0.0234375,-5.1875,-6.375,-11.7578125
2450286888000,-6.408203125,0.009765625,0.173828125,-5.4453125,-6.46875,-10.39453125
2450289316000,-6.552734375,-0.236328125,0.369140625,-5.4375,-6.515625,-10.29296875
2450291814000,-6.6953125,-0.47265625,0.578125,-5.40234375,-6.5625,-8.9140625
2450294602000,-6.822265625,-0.666015625,0.7578125,-5.25,-6.51953125,-7.35546875
2450296862000,-6.951171875,-0.87109375,0.9765625,-5.1875,-6.4765625,-5.796875
2450301949000,-7.18359375,-1.1953125,1.345703125,-5.140625,-6.625,-5.6328125
2450304750000,-7.26953125,-1.361328125,1.521484375,-5.2734375,-6.59765625,-4.08984375
2450306790000,-7.349609375,-1.50390625,1.685546875,-5.4921875,-6.68359375,-2.6328125
2450309275000,-7.38671875,-1.62890625,1.88671875,-5.453125,-6.76953125,-2.5625
2450311825000,-7.41796875,-1.755859375,2.0546875,-5.5078125,-7.0234375,-1.41796875
2450314220000,-7.41796875,-1.8828125,2.224609375,-5.5546875,-7.28125,-0.5234375
2450316805000,-7.41796875,-2.01171875,2.40625,-5.34765625,-7.609375,0.25
2450319391000,-7.376953125,-2.126953125,2.5703125,-5.015625,-8.0234375,1.02734375
2450324310000,-7.2734375,-2.376953125,2.923828125,-4.5390625,-8.55859375,1.953125
2450333266000,-6.95703125,-2.650390625,3.4375,-3.59375,-9.14453125,3.67578125
2450341119000,-6.486328125,-2.955078125,3.9296875,-3.1328125,-9.359375,5.203125
2450344208000,-6.02734375,-3.158203125,4.240234375,-2.65625,-9.41015625,5.6171875
2450346916000,-5.728515625,-3.255859375,4.40234375,-2.0859375,-9.359375,5.93359375
2450349365000,-5.423828125,-3.341796875,4.53515625,-2.015625,-9.5078125,5.91796875
2450351654000,-5.13671875,-3.44921875,4.693359375,-1.41015625,-9.484375,6.34375
2450356772000,-4.607421875,-3.701171875,4.95703125,-1.26171875,-9.765625,6.2734375
2450360548000,-4.34765625,-3.8203125,5.09765625,-0.17578125,-9.50390625,7.234375
2450368293000,-3.705078125,-4.037109375,5.416015625,0.66796875,-9.0234375,7.890625
2450379197000,-2.642578125,-4.060546875,5.736328125,2.796875,-8.15625,9.36328125
2450381764000,-2.439453125,-3.984375,5.7734375,3.79296875,-7.56640625,9.8046875
2450384157000,-2.208984375,-3.876953125,5.7890625,3.84765625,-7.72265625,9.7265625
2450386580000,-1.958984375,-3.72265625,5.8046875,4.99609375,-7.0234375,10.19140625
2450391598000,-1.455078125,-3.326171875,5.78515625,5.07421875,-7.3125,10.03515625
2450394519000,-1.212890625,-3.0859375,5.75390625,5.96484375,-6.46875,10.33984375
2450396629000,-0.9375,-2.826171875,5.728515625,6.72265625,-5.48828125,10.51953125
2450399066000,-0.64453125,-2.541015625,5.66796875,7.3515625,-4.421875,10.47265625
2450406468000,0.201171875,-1.646484375,5.396484375,7.89453125,-3.5390625,10.10546875
2450414162000,0.98828125,-0.865234375,4.923828125,8.08984375,-0.55859375,8.34375
2450421525000,1.681640625,-0.310546875,4.27734375,7.765625,1.13671875,6.76171875
2450426451000,2.0546875,-0.06640625,3.791015625,7.7578125,0.97265625,6.75390625
2450429054000,2.19140625,0.025390625,3.546875,7.6328125,1.78125,6.265625
2450431507000,2.30859375,0.11328125,3.298828125,7.73046875,2.5625,6.04296875
2450433938000,2.392578125,0.23046875,3.033203125,7.72265625,2.4921875,6.05078125
2450436542000,2.427734375,0.341796875,2.783203125,8.60546875,3.40234375,4.99609375
2450438896000,2.451171875,0.48828125,2.548828125,8.59765625,3.35546875,5.01171875
2450441435000,2.482421875,0.669921875,2.306640625,8.58984375,3.30859375,5.02734375
2450443906000,2.48828125,0.859375,2.080078125,8.9296875,3.41015625,4.45703125
2450446471000,2.505859375,1.021484375,1.833984375,8.98046875,3.54296875,3.58984375
2450449028000,2.482421875,1.203125,1.61328125,8.96484375,3.51171875,3.62890625
2450451360000,2.455078125,1.375,1.41015625,8.95703125,3.76171875,2.90234375
2450454197000,2.4375,1.5390625,1.205078125,8.8359375,4.03515625,2.109375
2450456630000,2.373046875,1.73046875,1.0,8.47265625,4.36328125,1.1796875
2450459026000,2.310546875,1.90625,0.830078125,8.45703125,4.35546875,1.234375
2450461369000,2.236328125,2.08984375,0.625,8.1640625,4.6796875,0.2578125
2450463955000,2.150390625,2.30078125,0.4765625,8.1484375,4.6796875,0.3125
2450466521000,2.048828125,2.53125,0.302734375,8.1328125,5.1484375,-0.609375
2450468850000,1.90625,2.7734375,0.16796875,8.109375,5.1640625,-0.546875
2450471425000,1.744140625,3.048828125,0.029296875,8.25,5.66015625,-1.20703125
2450473906000,1.55859375,3.3828125,-0.095703125,8.25390625,5.96484375,-2.125
2450476406000,1.3515625,3.6953125,-0.234375,8.15234375,6.1640625,-3.0625
2450481292000,0.9140625,4.34375,-0.529296875,8.08984375,6.1953125,-2.8828125
2450485333000,0.69140625,4.689453125,-0.69140625,7.46484375,6.90625,-5.828125
2450493234000,0.04296875,5.69140625,-1.232421875,5.828125,7.78125,-9.27734375
2450500938000,-0.583984375,6.34765625,-1.8046875,4.02734375,8.41015625,-12.7578125
2450503822000,-1.04296875,6.490234375,-2.150390625,3.0703125,8.60546875,-14.0234375
2450506389000,-1.283203125,6.453125,-2.306640625,1.99609375,8.75,-14.9453125
2450508903000,-1.533203125,6.32421875,-2.4140625,1.92578125,8.78125,-14.8203125
2450511363000,-1.806640625,6.126953125,-2.552734375,0.90625,8.74609375,-15.60546875
2450516416000,-2.296875,5.556640625,-2.728515625,0.78125,8.80859375,-15.37109375
2450520540000,-2.458984375,5.1875,-2.8203125,-1.65625,8.27734375,-17.08984375
2450528140000,-2.732421875,3.9140625,-3.005859375,-3.1875,7.0078125,-17.0234375
2450538915000,-2.7890625,1.5703125,-3.0078125,-4.17578125,4.84765625,-13.68359375
2450543708000,-2.841796875,0.72265625,-2.896484375,-4.20703125,4.87890625,-13.64453125
2450546511000,-2.837890625,0.330078125,-2.83203125,-4.55859375,4.3203125,-12.3125
2450548607000,-2.82421875,-0.005859375,-2.751953125,-4.72265625,3.55078125,-11.01953125
2450551216000,-2.798828125,-0.291015625,-2.67578125,-4.76953125,2.63671875,-9.87109375
2450553890000,-2.75,-0.5546875,-2.595703125,-4.75390625,2.65234375,-9.87890625
2450556275000,-2.68359375,-0.76953125,-2.5234375,-4.890625,1.625,-8.78125
2450558545000,-2.61328125,-0.962890625,-2.439453125,-5.0859375,0.70703125,-7.62890625
2450566133000,-2.5390625,-1.4140625,-2.228515625,-5.8125,-1.04296875,-5.1796875
2450573702000,-2.56640625,-1.80859375,-2.0,-6.63671875,-2.98046875,-3.609375
2450581221000,-2.5625,-2.16796875,-1.65625,-7.0859375,-4.69921875,-2.14453125
2450586122000,-2.513671875,-2.369140625,-1.35546875,-7.0234375,-4.69921875,-2.23046875
2450588677000,-2.490234375,-2.46875,-1.1875,-7.1640625,-5.5078125,-1.59375
2450591191000,-2.423828125,-2.576171875,-1.029296875,-7.27734375,-6.1953125,-1.046875
2450593529000,-2.359375,-2.7109375,-0.83984375,-7.24609375,-6.2109375,-1.09375
2450596141000,-2.267578125,-2.84375,-0.646484375,-7.40625,-6.8125,-0.70703125
2450598559000,-2.1640625,-3.0078125,-0.451171875,-7.55078125,-7.2890625,-0.3671875
2450601238000,-2.05078125,-3.1875,-0.2421875,-7.578125,-7.6875,0.05078125
2450606132000,-1.865234375,-3.619140625,0.171875,-7.5,-7.7421875,-0.08984375
2450608861000,-1.744140625,-3.849609375,0.369140625,-7.34765625,-8.04296875,0.36328125
2450611152000,-1.623046875,-4.087890625,0.572265625,-7.18359375,-8.41796875,0.796875
2450613586000,-1.482421875,-4.357421875,0.751953125,-7.09765625,-8.6796875,1.1328125
2450616089000,-1.32421875,-4.634765625,0.947265625,-6.95703125,-8.96875,1.4921875
2450618445000,-1.123046875,-4.9296875,1.109375,-6.91015625,-9.0,1.390625
2450621024000,-0.91015625,-5.23828125,1.259765625,-6.375,-9.25,1.76953125
2450623548000,-0.681640625,-5.546875,1.423828125,-5.46875,-9.453125,2.19921875
2450625935000,-0.462890625,-5.8203125,1.578125,-5.421875,-9.4921875,2.08203125
2450628486000,-0.26171875,-6.06640625,1.734375,-5.3671875,-9.53125,1.94921875
2450630934000,-0.021484375,-6.3046875,1.857421875,-4.5078125,-9.65625,2.62890625
2450633501000,0.185546875,-6.50390625,1.98046875,-4.453125,-9.6953125,2.48828125
2450636131000,0.373046875,-6.67578125,2.0859375,-3.078125,-9.3984375,3.8671875
2450638491000,0.5625,-6.833984375,2.203125,-3.03125,-9.4375,3.7265625
2450640961000,0.7109375,-6.994140625,2.291015625,-2.3046875,-9.12890625,4.4296875
2450648398000,1.060546875,-7.25390625,2.53125,-1.08984375,-8.9140625,4.953125
2450653474000,1.224609375,-7.21875,2.642578125,1.14453125,-7.8828125,6.328125
2450663581000,1.373046875,-6.49609375,2.7421875,4.14453125,-5.78515625,7.42578125
2450668372000,1.46875,-6.015625,2.75,4.16796875,-5.90234375,7.14453125
2450670971000,1.548828125,-5.75390625,2.71484375,4.76953125,-5.11328125,7.23046875
2450673351000,1.6484375,-5.5078125,2.669921875,4.9609375,-4.3984375,7.2890625
2450676139000,1.7578125,-5.275390625,2.615234375,5.23828125,-3.7421875,7.30078125
2450678284000,1.8828125,-5.060546875,2.544921875,5.859375,-3.203125,7.20703125
2450683496000,2.15234375,-4.587890625,2.34765625,6.63671875,-2.7578125,6.94140625
2450690754000,2.5234375,-3.71875,1.9375,7.7109375,-1.89453125,6.76953125
2450699643000,2.720703125,-2.5234375,1.35546875,8.1171875,-0.94140625,6.4375
2450703342000,2.80078125,-1.765625,0.888671875,8.1015625,-0.98828125,6.3671875
2450705864000,2.849609375,-1.470703125,0.64453125,7.7578125,-0.62109375,6.046875
2450708352000,2.890625,-1.21484375,0.400390625,7.26953125,-0.359375,5.3046875
2450710814000,2.947265625,-0.984375,0.142578125,7.26953125,-0.3671875,5.296875
2450713340000,2.9921875,-0.794921875,-0.091796875,6.83203125,-0.22265625,4.40625
2450715903000,3.033203125,-0.64453125,-0.298828125,6.7734375,-0.15625,3.40234375
2450718302000,3.103515625,-0.51953125,-0.494140625,7.01953125,-0.0625,2.6640625
2450720768000,3.15234375,-0.419921875,-0.65625,7.48046875,0.19140625,2.296875
2450723255000,3.205078125,-0.337890625,-0.802734375,7.48046875,0.19921875,2.296875
2450725715000,3.26171875,-0.2421875,-0.91796875,7.48828125,0.22265625,2.3125
2450728380000,3.322265625,-0.119140625,-1.044921875,7.9921875,0.54296875,1.91796875
2450730939000,3.375,0.03515625,-1.15234375,8.34765625,0.70703125,1.49609375
2450733372000,3.451171875,0.232421875,-1.291015625,8.35546875,0.73046875,1.51953125
2450735795000,3.5,0.443359375,-1.419921875,8.26953125,0.80078125,0.73828125
2450738234000,3.62109375,0.68359375,-1.560546875,7.796875,0.9453125,-0.265625
2450745695000,3.91015625,1.38671875,-1.99609375,7.11328125,1.19140625,-1.39453125
2450750787000,4.005859375,1.798828125,-2.240234375,5.625,1.49609375,-3.2109375
2450760812000,3.943359375,2.3203125,-2.404296875,3.15625,2.21484375,-7.55859375
2450765680000,3.853515625,2.40625,-2.439453125,3.1640625,2.33984375,-7.41796875
2450768151000,3.78125,2.44921875,-2.4375,2.234375,2.75390625,-8.95703125
2450770653000,3.705078125,2.484375,-2.435546875,1.23828125,3.1640625,-10.37109375
2450773274000,3.580078125,2.537109375,-2.458984375,1.24609375,3.234375,-10.30078125
2450775736000,3.435546875,2.62109375,-2.44140625,-0.11328125,4.203125,-12.48046875
2450778124000,3.234375,2.728515625,-2.439453125,-0.12109375,4.265625,-12.41796875
2450780628000,2.978515625,2.880859375,-2.427734375,-0.12109375,4.34375,-12.34765625
2450783086000,2.63671875,3.060546875,-2.396484375,-0.71484375,4.76953125,-13.0546875
2450785589000,2.208984375,3.2734375,-2.361328125,-1.32421875,5.1484375,-13.515625
2450788269000,1.703125,3.515625,-2.326171875,-1.33984375,5.2109375,-13.4296875
2450790636000,1.095703125,3.76953125,-2.26953125,-1.98828125,5.46484375,-13.37890625
2450793560000,0.421875,4.02734375,-2.216796875,-2.45703125,5.64453125,-13.0703125
2450795723000,-0.33984375,4.2578125,-2.130859375,-2.78125,5.77734375,-12.80078125
2450797994000,-1.14453125,4.455078125,-2.037109375,-2.796875,5.81640625,-12.70703125
2450800732000,-1.955078125,4.6328125,-1.92578125,-2.89453125,5.65625,-12.92578125
2450803115000,-2.74609375,4.822265625,-1.783203125,-2.91015625,5.6875,-12.82421875
2450805514000,-3.49609375,4.935546875,-1.6171875,-3.22265625,5.44921875,-13.34765625
2450808237000,-4.1640625,4.998046875,-1.419921875,-3.25390625,5.46484375,-13.23046875
2450810635000,-4.75,4.970703125,-1.2265625,-3.91015625,5.2734375,-13.8671875
2450813100000,-5.228515625,4.8515625,-1.021484375,-5.0390625,4.98828125,-14.41015625
2450815628000,-5.59375,4.62890625,-0.845703125,-6.00390625,4.63671875,-14.59375
2450818134000,-5.892578125,4.328125,-0.65234375,-6.03515625,4.61328125,-14.4921875
2450820541000,-6.083984375,3.955078125,-0.455078125,-6.640625,4.25390625,-13.99609375
2450828117000,-6.35546875,2.53515625,-0.01171875,-7.125,3.7265625,-13.1875
2450832247000,-6.33203125,2.01171875,0.109375,-7.62890625,2.72265625,-11.2734375
2450843074000,-5.400390625,-0.359375,0.208984375,-7.72265625,0.7890625,-7.82421875
2450845528000,-5.044921875,-0.76171875,0.1796875,-7.79296875,0.1171875,-6.5546875
2450848128000,-4.66796875,-1.150390625,0.11328125,-7.78515625,0.078125,-6.5859375
2450850494000,-4.265625,-1.53125,0.0625,-7.4140625,-0.56640625,-5.0234375
2450855360000,-3.47265625,-2.234375,-0.0390625,-6.81640625,-1.18359375,-3.58203125
2450857907000,-3.09375,-2.548828125,-0.064453125,-6.1484375,-1.578125,-2.19921875
2450860541000,-2.748046875,-2.84375,-0.078125,-6.125,-1.59375,-2.26171875
2450862870000,-2.43359375,-3.1328125,-0.076171875,-5.6796875,-1.92578125,-0.98046875
2450865520000,-2.140625,-3.40234375,-0.076171875,-5.65625,-1.94140625,-1.05859375
2450868041000,-1.87109375,-3.6640625,-0.05859375,-5.51953125,-2.31640625,-0.00390625
2450870340000,-1.59765625,-3.884765625,-0.052734375,-5.50390625,-2.32421875,-0.08984375
2450873088000,-1.349609375,-4.10546875,-0.037109375,-5.578125,-2.65234375,0.95703125
2450875317000,-1.1015625,-4.328125,-0.015625,-5.390625,-3.0078125,1.8671875
2450877897000,-0.875,-4.53515625,0.01953125,-5.3671875,-3.0078125,1.7578125
2450882910000,-0.515625,-4.98828125,0.107421875,-4.15234375,-4.01171875,2.95703125
2450890360000,-0.033203125,-5.71484375,0.302734375,-3.34375,-4.65625,3.1953125
2450897895000,0.40234375,-6.4140625,0.474609375,-0.93359375,-5.97265625,5.390625
2450900544000,0.53125,-6.615234375,0.537109375,-0.14453125,-6.29296875,6.30859375
2450905308000,0.802734375,-6.947265625,0.6484375,-0.12109375,-6.31640625,5.99609375
2450907850000,0.94140625,-7.056640625,0.69921875,0.5859375,-6.62109375,6.86328125
2450910278000,1.08984375,-7.13671875,0.734375,1.546875,-6.88671875,7.484375
2450912957000,1.265625,-7.150390625,0.783203125,1.546875,-6.91796875,7.3203125
2450915376000,1.421875,-7.091796875,0.798828125,2.609375,-7.19921875,8.0546875
2450917764000,1.583984375,-7.001953125,0.826171875,3.46875,-7.42578125,8.984375
2450925427000,2.091796875,-6.5859375,0.728515625,4.3671875,-7.56640625,9.4453125
2450932899000,2.515625,-5.9609375,0.525390625,6.0859375,-7.359375,10.8984375
2450940529000,2.802734375,-5.001953125,0.271484375,9.1328125,-6.140625,11.91796875
2450945350000,2.9453125,-4.23828125,0.09375,9.09375,-6.171875,11.73046875
2450947899000,3.015625,-3.77734375,-0.05078125,9.69921875,-5.640625,11.4140625
2450950222000,3.09765625,-3.275390625,-0.275390625,10.0078125,-5.6484375,10.7890625
2450952846000,3.166015625,-2.716796875,-0.55078125,9.9921875,-5.65625,10.7265625
2450955134000,3.287109375,-2.18359375,-0.865234375,9.94921875,-4.80859375,9.80859375
2450957823000,3.416015625,-1.71875,-1.158203125,9.94140625,-4.80078125,9.77734375
2450960367000,3.552734375,-1.3046875,-1.46875,9.8046875,-4.41015625,8.9375
2450962653000,3.693359375,-0.90625,-1.765625,9.94140625,-4.0390625,7.90625
2450965274000,3.8515625,-0.521484375,-2.01171875,9.94921875,-4.0078125,7.8984375
2450967636000,3.984375,-0.15234375,-2.24609375,9.95703125,-3.984375,7.90625
2450970263000,4.115234375,0.1953125,-2.40625,10.1640625,-3.515625,6.92578125
2450972766000,4.19921875,0.484375,-2.52734375,10.1796875,-3.484375,5.94140625
2450975146000,4.28125,0.712890625,-2.638671875,10.21484375,-3.609375,4.91015625
2450980416000,4.431640625,1.044921875,-2.802734375,10.23828125,-3.515625,4.97265625
2450984444000,4.5,1.16015625,-2.87890625,9.34375,-3.3515625,2.80078125
2450992325000,4.80859375,1.443359375,-3.220703125,8.1484375,-2.515625,0.30078125
2451000117000,5.1640625,1.931640625,-3.607421875,7.6796875,-1.6953125,-1.28515625
2451003914000,5.310546875,2.41796875,-3.845703125,7.39453125,-1.34375,-1.70703125
2451007566000,5.296875,2.9140625,-4.0390625,7.43359375,-1.203125,-1.56640625
2451010098000,5.232421875,3.169921875,-4.072265625,7.078125,-0.92578125,-2.16796875
2451012623000,5.12890625,3.416015625,-4.078125,6.76953125,-0.75390625,-3.05859375
2451015164000,4.97265625,3.69921875,-4.056640625,6.2578125,-0.04296875,-4.54296875
2451017677000,4.8203125,4.0,-3.990234375,4.76171875,0.68359375,-6.85546875
2451022607000,4.591796875,4.46875,-3.896484375,2.54296875,1.0390625,-9.421875
2451030333000,4.34375,4.484375,-3.974609375,0.05859375,1.84765625,-12.578125
2451039031000,3.732421875,4.080078125,-4.1015625,-1.05078125,2.4921875,-14.30078125
2451042547000,3.078125,3.806640625,-4.12109375,-1.59375,2.6796875,-15.13671875
2451045095000,2.73046875,3.705078125,-4.107421875,-2.46484375,2.71484375,-16.0
2451047500000,2.333984375,3.615234375,-4.05078125,-2.48046875,2.80859375,-15.9296875
2451050079000,1.9140625,3.53515625,-3.984375,-3.34765625,2.8046875,-16.7421875
2451052559000,1.494140625,3.47265625,-3.890625,-4.265625,2.484375,-17.17578125
2451055108000,1.03125,3.365234375,-3.76171875,-4.2734375,2.5703125,-17.10546875
2451057587000,0.568359375,3.259765625,-3.61328125,-5.29296875,2.08984375,-17.390625
2451060012000,0.09765625,3.13671875,-3.44921875,-6.37109375,1.640625,-17.78125
2451062489000,-0.328125,2.982421875,-3.291015625,-6.38671875,1.71875,-17.7109375
2451065056000,-0.71875,2.779296875,-3.1171875,-7.359375,1.18359375,-17.96484375
2451067420000,-1.05859375,2.556640625,-2.9296875,-7.375,1.24609375,-17.90234375
2451070113000,-1.34765625,2.306640625,-2.75,-7.83984375,0.98046875,-17.6875
2451072332000,-1.57421875,2.02734375,-2.546875,-7.84765625,1.03515625,-17.625
2451074874000,-1.79296875,1.759765625,-2.34375,-7.73046875,0.71484375,-16.90234375
2451077489000,-1.95703125,1.4921875,-2.125,-7.4296875,0.50390625,-15.7734375
2451081913000,-2.125,1.25,-1.92578125,-7.109375,0.49609375,-14.48828125
2451085073000,-2.40234375,0.8203125,-1.5234375,-7.06640625,0.796875,-13.10546875
2451089800000,-2.515625,0.6171875,-1.33203125,-7.12890625,1.25,-11.53125
2451092296000,-2.787109375,0.25390625,-0.970703125,-7.13671875,1.2890625,-11.484375
2451097557000,-3.015625,-0.083984375,-0.677734375,-7.14453125,1.57421875,-9.7578125
2451100227000,-3.087890625,-0.228515625,-0.55859375,-7.19140625,1.84765625,-8.15234375
2451102305000,-3.130859375,-0.35546875,-0.47265625,-7.14453125,2.0390625,-6.6796875
2451105026000,-3.146484375,-0.466796875,-0.39453125,-7.14453125,2.0390625,-6.671875
2451107251000,-3.134765625,-0.572265625,-0.349609375,-7.0390625,2.12109375,-5.36328125
2451109979000,-3.099609375,-0.65625,-0.3046875,-6.92578125,2.13671875,-4.03125
2451112548000,-3.064453125,-0.765625,-0.265625,-6.91796875,2.12890625,-4.0390625
2451114761000,-3.0234375,-0.841796875,-0.23828125,-6.33203125,1.82421875,-1.55078125
2451117349000,-3.00390625,-0.947265625,-0.205078125,-6.33203125,1.81640625,-1.55859375
2451119742000,-2.98828125,-1.03515625,-0.15625,-6.33203125,1.81640625,-1.56640625
2451122373000,-3.015625,-1.138671875,-0.111328125,-6.09375,1.58203125,-0.28125
2451124808000,-3.05859375,-1.244140625,-0.056640625,-5.9140625,1.4296875,0.91015625
2451127329000,-3.099609375,-1.345703125,0.021484375,-5.9140625,1.421875,0.89453125
2451129879000,-3.154296875,-1.43359375,0.10546875,-5.6640625,1.03125,1.953125
2451132381000,-3.212890625,-1.505859375,0.177734375,-5.65625,1.015625,1.9453125
2451134785000,-3.25,-1.58984375,0.283203125,-5.15234375,-0.3046875,3.39453125
2451139704000,-3.25,-1.708984375,0.490234375,-5.13671875,-0.34375,3.34765625
2451142225000,-3.22265625,-1.78125,0.603515625,-4.9453125,-1.140625,3.8828125
2451144878000,-3.1953125,-1.87890625,0.71875,-4.66015625,-2.0078125,4.3515625
2451147274000,-3.14453125,-1.990234375,0.822265625,-4.64453125,-2.0390625,4.328125
2451149818000,-3.11328125,-2.078125,0.9453125,-4.28125,-2.921875,5.1875
2451152354000,-3.083984375,-2.193359375,1.060546875,-3.86328125,-3.69140625,6.0
2451154872000,-3.041015625,-2.3046875,1.171875,-3.26171875,-4.421875,6.87890625
2451159716000,-2.990234375,-2.529296875,1.40625,-3.23828125,-4.5,6.79296875
2451162720000,-2.953125,-2.630859375,1.552734375,-2.5625,-5.1484375,7.71484375
2451164755000,-2.9296875,-2.720703125,1.66015625,-1.7890625,-5.78125,8.73046875
2451167379000,-2.8671875,-2.80078125,1.7734375,-1.02734375,-6.421875,9.77734375
2451169727000,-2.82421875,-2.8671875,1.90625,-1.01953125,-6.46875,9.71484375
2451172267000,-2.734375,-2.916015625,2.005859375,-0.1875,-7.1015625,10.62109375
2451174741000,-2.64453125,-2.970703125,2.109375,0.73828125,-7.5859375,11.390625
2451177113000,-2.501953125,-3.00390625,2.2265625,1.55078125,-7.8515625,12.08203125
2451182127000,-2.1484375,-3.029296875,2.404296875,2.390625,-7.9765625,12.61328125
2451187251000,-1.65625,-2.982421875,2.544921875,2.4140625,-8.1015625,12.48046875
2451189653000,-1.388671875,-2.94921875,2.583984375,3.25390625,-8.01171875,13.23046875
2451192224000,-1.10546875,-2.87890625,2.6015625,4.11328125,-7.8359375,14.03125
2451194885000,-0.822265625,-2.796875,2.58984375,5.12890625,-7.58984375,14.796875
2451197181000,-0.537109375,-2.673828125,2.568359375,6.171875,-7.29296875,15.375
2451199719000,-0.23046875,-2.525390625,2.505859375,6.1796875,-7.35546875,15.3125
2451202177000,0.0703125,-2.318359375,2.4375,7.328125,-6.95703125,15.640625
2451204696000,0.37109375,-2.080078125,2.330078125,8.27734375,-6.59765625,15.7578125
2451207280000,0.671875,-1.818359375,2.232421875,8.28515625,-6.66015625,15.7109375
2451209614000,0.986328125,-1.51953125,2.103515625,8.28515625,-6.70703125,15.671875
2451212116000,1.291015625,-1.1875,1.95703125,9.14453125,-6.16796875,15.3359375
2451214506000,1.59765625,-0.83203125,1.7890625,9.69140625,-5.5,14.65234375
2451217188000,1.888671875,-0.46875,1.625,10.02734375,-4.6484375,13.66015625
2451221974000,2.447265625,0.224609375,1.251953125,10.02734375,-4.71875,13.65234375
2451224551000,2.673828125,0.55078125,1.080078125,10.12109375,-3.88671875,12.69140625
2451227125000,2.900390625,0.8125,0.888671875,9.82421875,-3.11328125,11.6640625
2451229926000,3.083984375,1.033203125,0.69921875,9.83203125,-3.13671875,11.6796875
2451232204000,3.265625,1.20703125,0.474609375,9.41796875,-2.55859375,10.4765625
2451234582000,3.41015625,1.33984375,0.28515625,9.18359375,-2.21484375,9.0859375
2451237115000,3.564453125,1.46484375,0.072265625,8.88671875,-1.8671875,7.53515625
2451239472000,3.70703125,1.564453125,-0.138671875,8.625,-1.59765625,6.0703125
2451242083000,3.80859375,1.6640625,-0.33203125,8.625,-1.59765625,6.109375
2451244636000,3.93359375,1.7421875,-0.517578125,8.43359375,-1.24609375,4.63671875
2451249667000,4.107421875,1.86328125,-0.8515625,8.43359375,-1.21484375,4.70703125
2451252307000,4.177734375,1.89453125,-0.98828125,8.33984375,-0.7421875,3.4296875
2451254538000,4.228515625,1.919921875,-1.130859375,8.30078125,-0.4609375,2.38671875
2451257064000,4.267578125,1.93359375,-1.251953125,8.234375,-0.24609375,1.37109375
2451264683000,4.408203125,1.951171875,-1.66015625,8.19921875,0.015625,0.453125
2451271924000,4.595703125,2.076171875,-2.076171875,7.98828125,1.015625,-2.69921875
2451274670000,4.6328125,2.18359375,-2.23046875,7.9140625,1.15625,-3.609375
2451279426000,4.603515625,2.44921875,-2.501953125,8.08984375,1.25390625,-4.1953125
2451284463000,4.2421875,2.81640625,-2.728515625,8.07421875,1.37890625,-4.0859375
2451287469000,3.962890625,3.046875,-2.80078125,8.19921875,1.38671875,-4.68359375
2451289626000,3.63671875,3.302734375,-2.841796875,8.078125,1.49609375,-5.64453125
2451291870000,3.25,3.5703125,-2.880859375,8.0625,1.56640625,-5.57421875
2451294484000,2.828125,3.853515625,-2.8671875,7.55859375,1.76171875,-6.8125
2451296741000,2.39453125,4.134765625,-2.826171875,6.80859375,1.984375,-8.32421875
2451299318000,1.982421875,4.392578125,-2.779296875,6.79296875,2.0625,-8.22265625
2451302008000,1.560546875,4.630859375,-2.716796875,6.125,2.19921875,-9.83203125
2451304334000,1.1875,4.818359375,-2.6484375,5.5546875,2.16796875,-11.4921875
2451306895000,0.857421875,4.974609375,-2.591796875,5.53125,2.23828125,-11.3828125
2451309483000,0.595703125,5.072265625,-2.544921875,5.04296875,2.17578125,-13.125
2451311876000,0.40625,5.130859375,-2.537109375,5.01171875,2.23046875,-13.0078125
2451314494000,0.328125,5.1484375,-2.572265625,3.15234375,1.9375,-16.9296875
2451316738000,0.322265625,5.1171875,-2.6484375,3.12109375,2.0,-16.8125
2451319294000,0.40234375,5.10546875,-2.755859375,1.98828125,1.9296875,-18.421875
2451326820000,0.833984375,4.8515625,-3.212890625,0.68359375,1.98828125,-19.1953125
2451331497000,0.947265625,4.69140625,-3.37890625,-1.39453125,1.44140625,-19.83203125
2451335519000,1.107421875,4.19921875,-3.68359375,-2.1484375,0.9921875,-19.359375
2451339376000,1.109375,3.888671875,-3.794921875,-2.54296875,0.62890625,-18.7421875
2451341850000,1.0625,3.2109375,-3.890625,-3.20703125,0.5078125,-17.90625
2451346944000,0.9609375,2.529296875,-3.81640625,-3.30078125,0.6875,-17.7890625
2451349218000,0.91796875,2.189453125,-3.748046875,-3.953125,0.4765625,-17.01171875
2451351816000,0.884765625,1.876953125,-3.6328125,-4.3359375,0.07421875,-15.86328125
2451354789000,0.814453125,1.568359375,-3.51171875,-4.4609375,-0.390625,-14.1171875
2451358713000,0.70703125,1.26171875,-3.3515625,-4.5703125,-0.75,-12.15234375
2451362734000,0.396484375,0.75390625,-3.0,-4.7578125,-0.8671875,-10.46484375
2451369340000,-0.091796875,0.267578125,-2.3984375,-5.3125,-1.046875,-7.98046875
2451374435000,-0.37109375,0.048828125,-1.982421875,-5.703125,-1.12890625,-7.2265625
2451376735000,-0.4765625,-0.0390625,-1.78125,-6.140625,-1.1640625,-6.51953125
2451381846000,-0.646484375,-0.248046875,-1.421875,-6.1640625,-1.1015625,-6.50390625
2451384488000,-0.7265625,-0.373046875,-1.255859375,-6.59375,-1.078125,-5.78515625
2451386643000,-0.794921875,-0.501953125,-1.09765625,-7.109375,-1.05078125,-5.046875
2451389258000,-0.8828125,-0.654296875,-0.97265625,-7.109375,-1.03515625,-5.0546875
2451391753000,-0.974609375,-0.826171875,-0.8203125,-7.578125,-0.953125,-4.3046875
2451394255000,-1.044921875,-0.99609375,-0.693359375,-7.98828125,-0.953125,-3.51953125
2451396880000,-1.103515625,-1.185546875,-0.58203125,-8.24609375,-0.90625,-2.63671875
2451399143000,-1.1640625,-1.384765625,-0.443359375,-8.23828125,-0.90625,-2.65234375
2451401801000,-1.19140625,-1.611328125,-0.33984375,-8.39453125,-0.984375,-1.83203125
2451404155000,-1.193359375,-1.787109375,-0.2109375,-8.38671875,-0.984375,-1.85546875
2451406735000,-1.1796875,-1.97265625,-0.10546875,-8.37109375,-1.23828125,-1.21875
2451409709000,-1.140625,-2.119140625,0.0078125,-8.09765625,-1.49609375,-0.43359375
2451411707000,-1.099609375,-2.275390625,0.09765625,-8.08203125,-1.50390625,-0.45703125
2451414093000,-1.017578125,-2.41015625,0.205078125,-7.75,-1.72265625,0.40625
2451416489000,-0.97265625,-2.564453125,0.29296875,-7.296875,-1.9296875,1.54296875
2451419139000,-0.919921875,-2.703125,0.380859375,-6.80078125,-2.0703125,2.64453125
2451424126000,-0.830078125,-2.93359375,0.5703125,-6.75390625,-2.1015625,2.53515625
2451426596000,-0.80859375,-3.0625,0.666015625,-6.234375,-2.328125,3.70703125
2451429306000,-0.787109375,-3.16796875,0.748046875,-5.7109375,-2.58984375,4.99609375
2451431734000,-0.765625,-3.251953125,0.810546875,-5.6796875,-2.61328125,4.93359375
2451434086000,-0.751953125,-3.345703125,0.87890625,-5.19140625,-3.0,6.11328125
2451436652000,-0.73828125,-3.416015625,0.955078125,-4.640625,-3.41796875,7.32421875
2451439125000,-0.720703125,-3.45703125,1.0,-4.1796875,-3.8515625,8.2421875
2451441696000,-0.69921875,-3.5234375,1.0703125,-4.15625,-3.8828125,8.1640625
2451444103000,-0.689453125,-3.572265625,1.1484375,-3.84765625,-4.3671875,9.02734375
2451446601000,-0.66015625,-3.634765625,1.2109375,-3.81640625,-4.3984375,8.94921875
2451448880000,-0.654296875,-3.6953125,1.326171875,-3.37109375,-4.87109375,9.58984375
2451451499000,-0.63671875,-3.759765625,1.412109375,-3.33203125,-4.91015625,9.51171875
2451454133000,-0.61328125,-3.80078125,1.525390625,-1.86328125,-5.97265625,10.859375
2451456465000,-0.60546875,-3.8671875,1.642578125,-1.83203125,-6.01171875,10.78125
2451459051000,-0.58984375,-3.927734375,1.75390625,-1.80078125,-6.05078125,10.6953125
2451461578000,-0.56640625,-3.97265625,1.87109375,-0.8515625,-6.578125,11.48046875
2451463937000,-0.5625,-4.005859375,1.98046875,0.17578125,-6.94140625,12.2734375
2451466573000,-0.548828125,-3.98046875,2.103515625,0.20703125,-6.98046875,12.1875
2451468907000,-0.521484375,-3.91796875,2.20703125,1.3203125,-7.20703125,13.05078125
2451471547000,-0.505859375,-3.81640625,2.3125,1.3515625,-7.26953125,12.96484375
2451474194000,-0.48046875,-3.640625,2.39453125,2.49609375,-7.23046875,13.8828125
2451476348000,-0.412109375,-3.43359375,2.4765625,3.6875,-7.08203125,14.6953125
2451479010000,-0.353515625,-3.16796875,2.5390625,3.71875,-7.13671875,14.6171875
2451481533000,-0.251953125,-2.861328125,2.595703125,5.015625,-6.89453125,15.29296875
2451484051000,-0.138671875,-2.5234375,2.630859375,6.390625,-6.57421875,15.86328125
2451486431000,-0.001953125,-2.15234375,2.642578125,6.4140625,-6.63671875,15.80859375
2451489017000,0.173828125,-1.7421875,2.654296875,7.72265625,-6.0859375,16.06640625
2451491562000,0.3828125,-1.341796875,2.630859375,8.63671875,-5.30859375,15.921875
2451494035000,0.642578125,-0.9375,2.57421875,9.05078125,-4.6328125,15.3046875
2451496476000,0.9609375,-0.521484375,2.49609375,9.05859375,-4.6875,15.2890625
2451498908000,1.291015625,-0.154296875,2.400390625,9.171875,-3.921875,14.328125
2451503201000,1.65625,0.19921875,2.255859375,9.20703125,-3.15234375,13.19921875
2451510864000,2.755859375,1.048828125,1.693359375,8.75,-1.33203125,9.9921875
2451514148000,3.48828125,1.458984375,1.263671875,8.26171875,-0.3515625,8.05859375
2451518988000,4.16796875,1.767578125,0.818359375,7.68359375,0.46875,6.05078125
2451521459000,4.44921875,1.83984375,0.595703125,6.9765625,1.23046875,4.47265625
2451526568000,4.73828125,1.865234375,0.181640625,6.9765625,1.23046875,4.51953125
2451529330000,4.724609375,1.81640625,0.013671875,6.48046875,1.734375,3.43359375
2451531385000,4.619140625,1.73828125,-0.142578125,6.15625,2.23046875,2.67578125
2451533844000,4.40625,1.681640625,-0.23828125,5.91796875,2.67578125,2.0859375
2451536427000,4.08984375,1.62890625,-0.35546875,5.9375,2.890625,1.57421875
2451541412000,3.24609375,1.62890625,-0.44921875,5.921875,2.9296875,1.60546875
2451544044000,2.765625,1.724609375,-0.4765625,6.37109375,2.9921875,0.84375
2451546399000,2.26171875,1.8828125,-0.498046875,7.11328125,2.921875,-0.30078125
2451548807000,1.76953125,2.107421875,-0.5078125,7.10546875,2.9375,-0.26953125
2451551163000,1.27734375,2.361328125,-0.5234375,7.74609375,2.859375,-1.58203125
2451553842000,0.787109375,2.6484375,-0.5,8.19140625,2.75,-2.8203125
2451556352000,0.326171875,2.92578125,-0.474609375,8.40234375,2.8046875,-3.93359375
2451558720000,-0.126953125,3.1953125,-0.462890625,8.38671875,2.8203125,-3.86328125
2451561386000,-0.55859375,3.46484375,-0.447265625,8.23828125,2.89453125,-4.95703125
2451563938000,-0.962890625,3.72265625,-0.408203125,8.22265625,2.89453125,-4.87109375
2451566294000,-1.31640625,3.96875,-0.3828125,7.890625,3.0859375,-6.1640625
2451568733000,-1.619140625,4.19921875,-0.36328125,7.875,3.09375,-6.0625
2451571271000,-1.865234375,4.376953125,-0.3359375,7.48828125,3.28515625,-7.65625
2451573686000,-2.033203125,4.53515625,-0.3359375,6.95703125,3.49609375,-9.5390625
2451576299000,-2.173828125,4.666015625,-0.3359375,6.28125,3.91015625,-11.3359375
2451583976000,-2.279296875,4.875,-0.48828125,4.546875,5.1640625,-14.41796875
2451591158000,-2.12890625,4.75,-0.85546875,3.6015625,5.71875,-15.7421875
2451596312000,-1.962890625,4.50390625,-1.23828125,2.8359375,6.08203125,-17.0859375
2451598737000,-1.890625,4.33203125,-1.455078125,1.3984375,6.56640625,-19.42578125
2451601230000,-1.828125,4.126953125,-1.693359375,1.359375,6.58984375,-19.32421875
2451603785000,-1.75,3.908203125,-1.935546875,0.39453125,6.62109375,-20.2109375
2451606110000,-1.708984375,3.662109375,-2.16015625,-0.734375,6.34765625,-20.6796875
2451608672000,-1.677734375,3.39453125,-2.39453125,-0.7734375,6.38671875,-20.59375
2451611086000,-1.681640625,3.083984375,-2.603515625,-0.8203125,6.42578125,-20.515625
2451613673000,-1.689453125,2.744140625,-2.7734375,-3.2734375,5.24609375,-20.11328125
2451616256000,-1.74609375,2.390625,-2.9296875,-3.3125,5.28515625,-20.05078125
2451618677000,-1.81640625,2.01953125,-3.01171875,-3.9921875,4.47265625,-19.296875
2451621137000,-1.916015625,1.6328125,-3.056640625,-4.0234375,4.51953125,-19.2421875
2451623697000,-2.01953125,1.263671875,-3.025390625,-4.34375,3.65234375,-18.296875
2451626079000,-2.16015625,0.923828125,-2.9609375,-4.375,3.69140625,-18.265625
2451628767000,-2.30859375,0.591796875,-2.837890625,-4.7109375,2.859375,-17.07421875
2451631078000,-2.431640625,0.294921875,-2.693359375,-4.734375,2.890625,-17.05078125
2451633701000,-2.6328125,0.03125,-2.505859375,-5.40234375,1.57421875,-13.88671875
2451636257000,-2.791015625,-0.21875,-2.314453125,-5.41796875,1.59765625,-13.86328125
2451638561000,-2.99609375,-0.431640625,-2.142578125,-5.42578125,1.61328125,-13.84765625
2451641255000,-3.15625,-0.623046875,-1.966796875,-5.94140625,0.96875,-11.921875
2451643440000,-3.337890625,-0.771484375,-1.78125,-6.41796875,0.390625,-10.02734375
2451646125000,-3.513671875,-0.904296875,-1.6171875,-6.41796875,0.390625,-10.01953125
2451648619000,-3.6953125,-1.015625,-1.451171875,-6.72265625,-0.0859375,-8.19140625
2451651405000,-3.861328125,-1.115234375,-1.267578125,-6.88671875,-0.7265625,-6.6015625
2451653783000,-3.99609375,-1.2265625,-1.1015625,-7.0390625,-1.49609375,-5.1875
2451658542000,-4.259765625,-1.412109375,-0.734375,-7.0234375,-1.53515625,-5.1875
2451662898000,-4.359375,-1.525390625,-0.54296875,-7.3125,-3.04296875,-2.57421875
2451670745000,-4.525390625,-1.880859375,0.05078125,-8.09765625,-4.2109375,-0.51953125
2451674703000,-4.482421875,-2.162109375,0.439453125,-8.2421875,-4.953125,0.4921875
2451676176000,-4.419921875,-2.306640625,0.626953125,-8.046875,-5.73828125,1.5234375
2451681122000,-4.275390625,-2.57421875,0.98828125,-7.9921875,-5.85546875,1.46875
2451683502000,-4.201171875,-2.716796875,1.150390625,-7.609375,-6.65234375,2.51953125
2451686049000,-4.09375,-2.83984375,1.32421875,-7.05859375,-7.3671875,3.42578125
2451688553000,-3.974609375,-2.96875,1.478515625,-7.01953125,-7.4375,3.38671875
2451690888000,-3.876953125,-3.08203125,1.615234375,-6.484375,-8.07421875,4.34375
2451693463000,-3.751953125,-3.203125,1.751953125,-6.0625,-8.7578125,5.4296875
2451696102000,-3.630859375,-3.318359375,1.87109375,-5.7265625,-9.37890625,6.54296875
2451701046000,-3.34375,-3.55078125,2.08203125,-5.65625,-9.52734375,6.42578125
2451703463000,-3.126953125,-3.65625,2.181640625,-5.1953125,-10.02734375,7.33203125
2451706035000,-2.876953125,-3.751953125,2.279296875,-4.54296875,-10.34765625,7.91015625
2451708641000,-2.591796875,-3.869140625,2.38671875,-4.50390625,-10.42578125,7.83203125
2451710907000,-2.25,-3.966796875,2.47265625,-3.8828125,-10.640625,8.08203125
2451713863000,-1.88671875,-4.07421875,2.580078125,-3.30078125,-10.80078125,8.3203125
2451717475000,-1.51171875,-4.185546875,2.65625,-2.6171875,-10.89453125,8.4921875
2451721575000,-0.791015625,-4.43359375,2.83203125,-1.984375,-11.0234375,8.9375
2451729200000,0.021484375,-4.75,3.009765625,-0.859375,-11.0234375,10.7109375
2451735801000,0.515625,-4.771484375,3.068359375,1.44140625,-10.9140625,12.56640625
2451740954000,0.728515625,-4.43359375,3.06640625,1.49609375,-11.0546875,12.34765625
2451743737000,0.80859375,-4.1640625,3.080078125,3.00390625,-10.86328125,13.07421875
2451745870000,0.876953125,-3.845703125,3.08984375,4.3515625,-10.44921875,13.58984375
2451748402000,0.93359375,-3.498046875,3.115234375,5.45703125,-9.96484375,13.91796875
2451750869000,0.978515625,-3.099609375,3.13671875,5.48046875,-10.03515625,13.83984375
2451753435000,1.025390625,-2.716796875,3.1640625,6.484375,-9.3671875,13.875
2451755732000,1.0546875,-2.29296875,3.208984375,7.24609375,-8.51953125,13.5625
2451763325000,1.154296875,-1.13671875,3.26953125,7.76953125,-7.7734375,12.8515625
2451768399000,1.216796875,-0.478515625,3.2265625,7.98046875,-6.234375,10.8515625
2451773694000,1.306640625,0.064453125,3.09765625,7.9140625,-5.73046875,9.703125
2451775777000,1.357421875,0.30078125,3.021484375,7.90625,-5.14453125,8.53515625
2451778460000,1.408203125,0.498046875,2.9296875,7.828125,-4.58203125,7.19140625
2451783251000,1.576171875,0.81640625,2.720703125,7.8125,-4.70703125,7.23046875
2451785910000,1.66796875,0.908203125,2.630859375,7.70703125,-4.1484375,5.88671875
2451788427000,1.779296875,0.966796875,2.525390625,7.81640625,-3.54296875,4.56640625
2451791056000,1.888671875,1.015625,2.4296875,7.80859375,-3.60546875,4.59765625
2451793235000,2.015625,1.03125,2.333984375,8.421875,-2.140625,2.41015625
2451798253000,2.208984375,1.044921875,2.142578125,8.40625,-2.2265625,2.46484375
2451800566000,2.28125,1.025390625,2.0390625,8.71875,-1.2421875,1.8359375
2451803208000,2.341796875,1.005859375,1.958984375,9.109375,-0.23828125,1.265625
2451805920000,2.36328125,1.005859375,1.859375,9.1015625,-0.27734375,1.296875
2451808097000,2.36328125,1.02734375,1.755859375,9.375,0.7734375,0.53515625
2451810747000,2.365234375,1.076171875,1.6484375,9.3671875,0.7421875,0.56640625
2451813403000,2.333984375,1.134765625,1.517578125,9.859375,2.48046875,-0.7734375
2451815720000,2.28125,1.220703125,1.365234375,9.8515625,2.45703125,-0.7421875
2451818251000,2.203125,1.345703125,1.205078125,10.07421875,3.15234375,-1.23046875
2451820574000,2.095703125,1.478515625,1.01953125,10.33203125,3.71875,-1.92578125
2451823166000,1.953125,1.634765625,0.841796875,10.32421875,3.703125,-1.87890625
2451825759000,1.818359375,1.826171875,0.65234375,10.31640625,3.6953125,-1.83203125
2451828024000,1.66796875,2.03515625,0.455078125,10.5625,4.26171875,-2.59765625
2451830690000,1.52734375,2.267578125,0.2734375,10.8515625,5.046875,-3.53125
2451833379000,1.396484375,2.53515625,0.08203125,10.890625,5.90625,-4.73046875
2451835675000,1.287109375,2.83203125,-0.10546875,10.875,5.90625,-4.66796875
2451838115000,1.17578125,3.12890625,-0.294921875,10.62109375,6.69921875,-6.0859375
2451845665000,0.876953125,3.908203125,-0.798828125,10.28125,7.52734375,-7.39453125
2451850150000,0.7578125,4.12109375,-0.958984375,9.15625,9.140625,-11.08203125
2451853953000,0.49609375,4.486328125,-1.248046875,8.4296875,9.921875,-13.21484375
2451858219000,0.23046875,4.69921875,-1.517578125,7.33203125,10.4921875,-15.4375
2451860640000,0.0859375,4.720703125,-1.64453125,6.16015625,10.85546875,-17.28125
2451865750000,-0.3046875,4.55859375,-1.92578125,6.08984375,10.93359375,-17.0703125
2451868336000,-0.541015625,4.345703125,-2.03515625,4.66015625,11.26953125,-18.55859375
2451870573000,-0.81640625,4.09765625,-2.15625,3.15625,11.50390625,-19.66796875
2451873210000,-1.08203125,3.79296875,-2.2734375,1.890625,11.64453125,-20.51171875
2451875463000,-1.326171875,3.462890625,-2.33203125,1.0625,11.42578125,-21.0546875
2451880638000,-1.736328125,2.822265625,-2.47265625,1.015625,11.51171875,-20.921875
2451883104000,-1.873046875,2.505859375,-2.52734375,0.3984375,11.04296875,-21.09765625
2451885582000,-1.951171875,2.1953125,-2.55859375,-0.0390625,10.46875,-20.8515625
2451888390000,-2.00390625,1.927734375,-2.60546875,-0.0703125,10.5078125,-20.8125
2451890471000,-2.029296875,1.66015625,-2.626953125,-0.68359375,9.87890625,-20.3125
2451893041000,-2.015625,1.404296875,-2.654296875,-1.453125,9.34765625,-19.3359375
2451895557000,-2.015625,1.14453125,-2.662109375,-2.21875,8.84765625,-17.859375
2451898005000,-2.017578125,0.8984375,-2.68359375,-2.2265625,8.88671875,-17.84375
2451900410000,-2.02734375,0.662109375,-2.703125,-2.97265625,8.41796875,-16.2265625
2451903084000,-2.01953125,0.447265625,-2.71484375,-2.98046875,8.45703125,-16.2109375
2451905541000,-2.0546875,0.2578125,-2.71484375,-3.54296875,7.9609375,-14.6328125
2451907980000,-2.068359375,0.087890625,-2.724609375,-3.55078125,7.9921875,-14.6328125
2451910568000,-2.09375,-0.07421875,-2.71484375,-4.08203125,7.37109375,-12.94921875
2451913047000,-2.125,-0.220703125,-2.703125,-4.8359375,6.73046875,-11.3671875
2451915416000,-2.130859375,-0.3359375,-2.689453125,-5.77734375,5.984375,-10.01171875
2451922947000,-2.03125,-0.677734375,-2.619140625,-7.390625,4.08203125,-7.62109375
2451927893000,-1.931640625,-0.9140625,-2.529296875,-7.95703125,3.08203125,-6.57421875
2451935392000,-1.732421875,-1.267578125,-2.3359375,-8.59765625,2.2265625,-5.54296875
2451937937000,-1.666015625,-1.390625,-2.263671875,-9.296875,1.31640625,-4.4921875
2451940267000,-1.607421875,-1.49609375,-2.197265625,-9.921875,0.28515625,-3.59765625
2451942905000,-1.5546875,-1.623046875,-2.12109375,-9.90625,0.31640625,-3.63671875
2451945484000,-1.498046875,-1.759765625,-2.048828125,-10.33203125,-0.6953125,-2.7265625
2451947770000,-1.46875,-1.890625,-1.95703125,-10.71875,-1.83203125,-2.01953125
2451950342000,-1.43359375,-2.048828125,-1.849609375,-10.703125,-1.80078125,-2.06640625
2451952960000,-1.396484375,-2.2109375,-1.74609375,-11.0234375,-2.859375,-1.30078125
2451955396000,-1.3828125,-2.39453125,-1.61328125,-11.0078125,-3.91796875,-0.41015625
2451958184000,-1.37109375,-2.583984375,-1.48046875,-10.80078125,-5.03125,0.5703125
2451962863000,-1.384765625,-2.98828125,-1.16015625,-10.75390625,-5.0078125,0.453125
2451965593000,-1.380859375,-3.18359375,-1.025390625,-10.33984375,-6.05859375,1.359375
2451967831000,-1.369140625,-3.376953125,-0.85546875,-9.96484375,-6.98828125,2.30078125
2451970468000,-1.333984375,-3.552734375,-0.71875,-9.94140625,-6.98828125,2.21484375
2451972687000,-1.283203125,-3.744140625,-0.552734375,-8.5390625,-8.76953125,4.01171875
2451975373000,-1.2109375,-3.91796875,-0.419921875,-8.5078125,-8.76953125,3.92578125
2451977954000,-1.12109375,-4.09375,-0.271484375,-8.484375,-8.76171875,3.83984375
2451980302000,-1.033203125,-4.2578125,-0.140625,-7.61328125,-9.60546875,4.609375
2451982844000,-0.904296875,-4.400390625,0.001953125,-6.9375,-10.38671875,5.453125
2451985145000,-0.802734375,-4.52734375,0.109375,-6.9140625,-10.38671875,5.359375
2451987850000,-0.697265625,-4.658203125,0.234375,-6.29296875,-11.08203125,6.3828125
2451990804000,-0.619140625,-4.77734375,0.341796875,-5.6484375,-11.76953125,7.4921875
2451993034000,-0.529296875,-4.896484375,0.458984375,-4.87109375,-12.4453125,8.59375
2451997854000,-0.40625,-5.109375,0.708984375,-4.81640625,-12.484375,8.359375
2452002290000,-0.357421875,-5.20703125,0.828125,-2.828125,-13.9375,10.7421875
2452009887000,-0.19921875,-5.341796875,1.224609375,0.07421875,-14.9921875,12.80859375
2452013925000,-0.0625,-5.216796875,1.5390625,1.64453125,-15.3515625,13.859375
2452017769000,0.09375,-4.859375,1.853515625,1.69140625,-15.4375,13.609375
2452020270000,0.1875,-4.638671875,1.98828125,2.9921875,-15.41796875,14.6875
2452022781000,0.2890625,-4.353515625,2.1328125,4.1484375,-15.21484375,15.7578125
2452025369000,0.384765625,-4.052734375,2.25390625,5.3828125,-14.92578125,16.546875
2452027822000,0.51171875,-3.72265625,2.375,5.390625,-14.98046875,16.453125
2452030595000,0.662109375,-3.349609375,2.46484375,5.3984375,-15.04296875,16.359375
2452032872000,0.791015625,-2.970703125,2.5546875,7.7421875,-13.98828125,17.140625
2452035146000,0.953125,-2.599609375,2.626953125,8.8984375,-13.15234375,16.984375
2452040103000,1.294921875,-1.8515625,2.697265625,9.828125,-11.97265625,16.5859375
2452049113000,1.728515625,-0.87109375,2.638671875,11.14453125,-9.35546875,15.50390625
2452052720000,1.970703125,-0.32421875,2.50390625,11.6796875,-8.2734375,14.58203125
2452055252000,2.078125,-0.0625,2.4140625,12.1484375,-7.01953125,13.6328125
2452057650000,2.2109375,0.17578125,2.314453125,12.140625,-7.07421875,13.6328125
2452060059000,2.314453125,0.416015625,2.19921875,12.6796875,-5.85546875,12.3984375
2452062514000,2.416015625,0.646484375,2.08203125,12.6796875,-5.91015625,12.421875
2452065150000,2.5234375,0.876953125,1.955078125,13.16015625,-4.953125,10.52734375
2452067584000,2.634765625,1.06640625,1.845703125,13.15234375,-4.984375,10.55078125
2452070134000,2.75,1.205078125,1.708984375,13.27734375,-4.234375,8.30078125
2452072751000,2.828125,1.345703125,1.591796875,12.9921875,-3.5,6.30078125
2452075060000,2.8671875,1.439453125,1.47265625,12.359375,-2.53515625,4.75390625
2452079948000,2.814453125,1.59765625,1.23046875,12.3515625,-2.58984375,4.83984375
2452082536000,2.69921875,1.673828125,1.126953125,11.8828125,-1.625,3.66015625
2452085129000,2.5703125,1.765625,1.05078125,11.953125,-0.65234375,2.9609375
2452087612000,2.38671875,1.8984375,0.94921875,11.953125,-0.66015625,3.0078125
2452090190000,2.1875,2.068359375,0.873046875,12.59765625,0.484375,2.09375
2452092447000,1.984375,2.298828125,0.810546875,13.61328125,1.59765625,1.046875
2452095089000,1.771484375,2.5859375,0.744140625,14.5625,2.671875,-0.0859375
2452097488000,1.556640625,2.9296875,0.68359375,15.0625,3.81640625,-1.47265625
2452100023000,1.345703125,3.306640625,0.603515625,15.046875,3.80078125,-1.39453125
2452102495000,1.15625,3.708984375,0.505859375,15.03125,3.79296875,-1.30859375
2452105020000,0.974609375,4.103515625,0.40234375,14.83203125,5.02734375,-3.0625
2452107416000,0.796875,4.50390625,0.2890625,14.13671875,6.3046875,-5.078125
2452110081000,0.658203125,4.859375,0.130859375,14.12109375,6.3046875,-4.9609375
2452112438000,0.484375,5.18359375,-0.025390625,13.33203125,7.5859375,-7.140625
2452114953000,0.326171875,5.451171875,-0.193359375,12.453125,8.8984375,-9.41015625
2452122567000,-0.12109375,5.86328125,-0.783203125,11.41796875,10.3671875,-11.421875
2452129996000,-0.31640625,6.142578125,-1.513671875,9.8984375,13.3359375,-17.0234375
2452137634000,-0.619140625,5.9453125,-2.3515625,6.00390625,16.171875,-22.765625
2452142514000,-0.990234375,5.4921875,-2.939453125,5.93359375,16.28125,-22.515625
2452145116000,-1.1796875,5.19921875,-3.216796875,4.640625,16.4296875,-23.76953125
2452147573000,-1.353515625,4.9140625,-3.482421875,3.59765625,15.97265625,-25.22265625
2452149933000,-1.46484375,4.63671875,-3.7265625,3.57421875,16.04296875,-25.12109375
2452152373000,-1.564453125,4.318359375,-3.9296875,1.4453125,14.53515625,-27.0
2452157497000,-1.775390625,3.6484375,-4.248046875,0.87890625,13.7265625,-26.26171875
2452164948000,-2.25,2.748046875,-4.40625,-0.37109375,11.9140625,-23.875
2452174060000,-2.728515625,1.90625,-4.251953125,-2.4140625,9.75,-21.359375
2452177378000,-2.869140625,1.41796875,-4.0625,-2.4453125,9.8671875,-21.28125
2452179882000,-2.8828125,1.17578125,-3.962890625,-3.3984375,8.67578125,-20.33984375
2452182466000,-2.880859375,0.95703125,-3.841796875,-4.390625,7.5234375,-19.453125
2452184774000,-2.849609375,0.724609375,-3.732421875,-4.40625,7.578125,-19.4296875
2452187380000,-2.875,0.47265625,-3.599609375,-5.40234375,6.5859375,-18.44140625
2452189858000,-2.908203125,0.212890625,-3.46484375,-6.234375,5.55859375,-17.2734375
2452192540000,-2.98046875,-0.04296875,-3.302734375,-6.90234375,4.6875,-15.9140625
2452199752000,-3.400390625,-0.828125,-2.8046875,-7.87109375,2.80859375,-13.046875
2452204799000,-3.759765625,-1.28515625,-2.501953125,-8.20703125,1.7109375,-11.61328125
2452216578000,-4.2578125,-1.912109375,-2.072265625,-8.85546875,-2.7578125,-7.2109375
2452219805000,-4.357421875,-2.134765625,-1.94921875,-8.81640625,-2.7578125,-7.28125
2452222241000,-4.375,-2.224609375,-1.88671875,-9.48046875,-6.04296875,-3.98828125
2452224686000,-4.3515625,-2.33984375,-1.8359375,-9.45703125,-6.05078125,-4.02734375
2452227194000,-4.298828125,-2.4375,-1.751953125,-9.43359375,-6.05859375,-4.07421875
2452229895000,-4.2265625,-2.52734375,-1.6640625,-9.578125,-7.4296875,-2.73828125
2452232132000,-4.10546875,-2.609375,-1.56640625,-9.671875,-8.49609375,-1.46484375
2452234739000,-3.9765625,-2.666015625,-1.470703125,-9.6875,-9.37890625,-0.09375
2452239704000,-3.693359375,-2.8359375,-1.201171875,-9.390625,-10.265625,1.12109375
2452247261000,-3.283203125,-3.212890625,-0.76953125,-8.625,-12.17578125,3.59375
2452254769000,-2.861328125,-3.6328125,-0.263671875,-7.37890625,-14.30078125,4.91015625
2452259638000,-2.71484375,-3.74609375,-0.107421875,-6.6875,-15.3203125,5.64453125
2452262366000,-2.365234375,-3.984375,0.208984375,-5.97265625,-16.2109375,6.140625
2452264596000,-2.1953125,-4.091796875,0.37890625,-5.94140625,-16.234375,6.0546875
2452267256000,-2.0,-4.1640625,0.5234375,-5.3359375,-17.08984375,6.71875
2452269882000,-1.826171875,-4.232421875,0.666015625,-5.3125,-17.12109375,6.6171875
2452272086000,-1.6328125,-4.29296875,0.822265625,-4.58984375,-17.9765625,7.3671875
2452274630000,-1.439453125,-4.36328125,0.98828125,-3.8125,-18.8046875,8.421875
2452282119000,-1.076171875,-4.587890625,1.455078125,-2.98828125,-19.62109375,9.5
2452287105000,-0.953125,-4.681640625,1.78515625,-1.07421875,-20.89453125,12.33203125
2452297226000,-0.65234375,-4.58984375,2.390625,2.91015625,-22.41015625,16.5234375
2452302103000,-0.357421875,-4.29296875,2.6640625,2.94140625,-22.53515625,16.3046875
2452304467000,-0.166015625,-4.080078125,2.787109375,4.26953125,-22.28125,17.30078125
2452307184000,0.07421875,-3.85546875,2.88671875,5.51171875,-21.48046875,17.88671875
2452309771000,0.365234375,-3.591796875,3.01171875,5.51171875,-21.54296875,17.79296875
2452312249000,0.669921875,-3.306640625,3.091796875,8.13671875,-19.12109375,18.3359375
2452314577000,1.04296875,-3.0,3.177734375,8.13671875,-19.19140625,18.2578125
2452317012000,1.40625,-2.669921875,3.232421875,8.14453125,-19.26171875,18.1953125
2452319610000,1.76953125,-2.326171875,3.251953125,9.17578125,-17.5390625,18.734375
2452322116000,2.09765625,-1.94921875,3.232421875,9.84765625,-15.7890625,19.21484375
2452324663000,2.40625,-1.560546875,3.17578125,9.83984375,-15.8515625,19.17578125
2452327039000,2.69921875,-1.16796875,3.080078125,10.5703125,-14.24609375,19.5078125
2452329794000,2.9765625,-0.796875,2.951171875,11.078125,-12.78125,19.33203125
2452332159000,3.2109375,-0.4375,2.794921875,11.6171875,-11.62109375,18.59375
2452337021000,3.74609375,0.26171875,2.421875,12.25390625,-10.59375,17.26171875
2452344522000,4.7109375,1.1328125,1.796875,12.96484375,-8.07421875,13.2578125
2452353210000,5.923828125,1.587890625,1.177734375,12.625,-4.50390625,7.68359375
2452356940000,6.80859375,1.54296875,0.75,12.6171875,-4.51171875,7.79296875
2452359458000,7.224609375,1.4296875,0.525390625,12.4296875,-1.24609375,3.52734375
2452361874000,7.59765625,1.31640625,0.27734375,12.4140625,-1.23828125,3.58203125
2452364392000,7.95703125,1.2109375,0.0234375,12.5,0.03515625,1.9296875
2452367015000,8.263671875,1.1171875,-0.271484375,12.5,0.05859375,1.984375
2452369567000,8.55859375,1.046875,-0.587890625,12.56640625,0.97265625,0.27734375
2452371908000,8.7734375,1.005859375,-0.919921875,12.34765625,1.74609375,-1.29296875
2452374455000,8.958984375,0.986328125,-1.2265625,12.15625,2.40234375,-2.75
2452379434000,9.052734375,1.0703125,-1.80859375,12.1640625,3.12890625,-4.33203125
2452387037000,8.46875,1.703125,-2.287109375,11.703125,4.4609375,-8.4921875
2452394508000,6.833984375,2.9140625,-2.12109375,11.44140625,5.0625,-14.1484375
2452399373000,5.259765625,3.966796875,-1.7421875,11.41796875,5.2109375,-13.9765625
2452401858000,4.41015625,4.525390625,-1.537109375,10.80078125,5.76171875,-17.76171875
2452404252000,3.55078125,5.0390625,-1.33203125,9.390625,6.40234375,-21.83984375
2452406982000,2.7109375,5.43359375,-1.1875,9.3671875,6.45703125,-21.71484375
2452409513000,1.921875,5.701171875,-1.1015625,7.13671875,7.39453125,-25.671875
2452411921000,1.21484375,5.87890625,-1.060546875,5.1796875,8.8046875,-29.5390625
2452414243000,0.619140625,5.970703125,-1.115234375,3.453125,10.16796875,-33.0546875
2452419428000,-0.25390625,5.814453125,-1.423828125,1.77734375,11.58203125,-35.65625
2452426870000,-0.859375,4.908203125,-2.279296875,0.41015625,13.34765625,-38.359375
2452434289000,-1.08203125,3.66796875,-3.24609375,0.5703125,12.96875,-38.5703125
2452439010000,-1.05078125,3.22265625,-3.560546875,0.703125,12.26171875,-38.01953125
2452441680000,-0.93359375,2.341796875,-4.08984375,0.6484375,12.41015625,-37.89453125
2452444183000,-0.859375,1.91015625,-4.330078125,0.56640625,11.453125,-36.19140625
2452446847000,-0.8125,1.490234375,-4.521484375,0.20703125,10.37109375,-33.4140625
2452449233000,-0.80859375,1.0390625,-4.685546875,0.19140625,10.45703125,-33.3828125
2452451792000,-0.8359375,0.6015625,-4.81640625,-0.3671875,9.265625,-29.7890625
2452454203000,-0.87890625,0.19921875,-4.919921875,-0.796875,7.7890625,-26.31640625
2452461703000,-0.99609375,-0.654296875,-5.015625,-0.8671875,6.26953125,-23.125
2452469136000,-0.962890625,-1.044921875,-4.7890625,-0.77734375,2.49609375,-17.28125
2452476780000,-0.9140625,-1.33984375,-4.296875,-3.40625,-1.95703125,-9.08203125
2452481591000,-0.86328125,-1.548828125,-3.8671875,-3.4140625,-1.79296875,-9.13671875
2452484176000,-0.833984375,-1.67578125,-3.642578125,-4.30078125,-2.9296875,-6.9765625
2452486811000,-0.798828125,-1.810546875,-3.392578125,-4.9453125,-3.9140625,-5.11328125
2452489225000,-0.736328125,-1.947265625,-3.134765625,-4.9375,-3.8515625,-5.15234375
2452491673000,-0.671875,-2.103515625,-2.90234375,-5.47265625,-4.84765625,-1.80078125
2452494180000,-0.62109375,-2.2578125,-2.6640625,-5.46484375,-4.79296875,-1.83203125
2452496547000,-0.58984375,-2.427734375,-2.453125,-5.609375,-4.98828125,-0.0390625
2452499236000,-0.572265625,-2.576171875,-2.251953125,-5.8125,-5.16796875,1.6484375
2452501582000,-0.578125,-2.736328125,-2.0625,-5.8046875,-5.12890625,1.6015625
2452504144000,-0.58203125,-2.869140625,-1.927734375,-5.88671875,-5.4375,3.1484375
2452506495000,-0.611328125,-2.982421875,-1.767578125,-5.87109375,-5.40625,3.09375
2452509200000,-0.609375,-3.078125,-1.654296875,-5.8828125,-5.8984375,4.50390625
2452511563000,-0.62109375,-3.15625,-1.54296875,-5.9453125,-6.44140625,6.0234375
2452516739000,-0.662109375,-3.28515625,-1.31640625,-5.90625,-6.38671875,5.8984375
2452519494000,-0.720703125,-3.337890625,-1.208984375,-5.98828125,-6.9296875,7.7734375
2452521633000,-0.818359375,-3.3828125,-1.072265625,-5.9609375,-7.5078125,9.91015625
2452524088000,-0.908203125,-3.4453125,-0.94140625,-5.9375,-7.4921875,9.83984375
2452526669000,-1.02734375,-3.484375,-0.783203125,-5.6640625,-8.13671875,11.89453125
2452529086000,-1.15625,-3.537109375,-0.58203125,-5.29296875,-8.7890625,13.81640625
2452531997000,-1.2734375,-3.591796875,-0.400390625,-4.6875,-9.44921875,15.51953125
2452539047000,-1.46484375,-3.66796875,0.3046875,-3.13671875,-10.3359375,18.71484375
2452546723000,-1.37109375,-3.552734375,1.046875,-2.2890625,-10.58984375,20.15234375
2452555843000,-1.119140625,-3.365234375,1.6796875,0.11328125,-11.01171875,24.796875
2452559037000,-0.953125,-3.224609375,2.01953125,0.16796875,-11.11328125,24.65625
2452561395000,-0.837890625,-3.11328125,2.158203125,0.98828125,-11.32421875,26.4140625
2452564105000,-0.7265625,-2.990234375,2.287109375,1.8046875,-11.40625,28.21875
2452566631000,-0.57421875,-2.814453125,2.373046875,1.828125,-11.46875,28.1484375
2452568986000,-0.384765625,-2.59375,2.43359375,2.65625,-11.36328125,29.63671875
2452571867000,-0.146484375,-2.345703125,2.509765625,3.4921875,-11.0390625,30.51171875
2452573973000,0.138671875,-2.076171875,2.546875,4.37890625,-10.30078125,31.078125
2452579011000,0.798828125,-1.478515625,2.6328125,4.42578125,-10.41796875,30.9921875
2452581729000,1.181640625,-1.1953125,2.638671875,5.11328125,-9.6015625,30.50390625
2452584024000,1.5859375,-0.935546875,2.634765625,5.29296875,-8.78515625,30.109375
2452586462000,1.986328125,-0.705078125,2.607421875,5.30078125,-8.83984375,30.078125
2452588947000,2.357421875,-0.453125,2.556640625,5.59375,-7.75390625,29.66796875
2452591525000,2.70703125,-0.18359375,2.50390625,6.05859375,-6.81640625,28.91796875
2452593894000,3.037109375,0.123046875,2.421875,6.69921875,-6.0,27.67578125
2452596445000,3.30859375,0.42578125,2.33984375,7.375,-5.109375,26.03125
2452598973000,3.5625,0.75390625,2.244140625,7.375,-5.15625,26.0390625
2452601411000,3.7734375,1.044921875,2.140625,7.921875,-4.11328125,23.98828125
2452606604000,4.115234375,1.60546875,1.943359375,7.9296875,-4.18359375,24.01953125
2452609359000,4.25,1.84765625,1.845703125,8.109375,-3.1328125,21.5390625
2452611645000,4.359375,2.0234375,1.7421875,8.04296875,-2.0859375,19.09375
2452613916000,4.400390625,2.201171875,1.64453125,8.1875,-1.171875,17.140625
2452621357000,4.212890625,2.5625,1.306640625,8.578125,-0.4296875,15.5625
2452626282000,3.849609375,2.748046875,1.119140625,9.1640625,1.13671875,11.82421875
2452636309000,3.15625,3.126953125,0.78125,9.8828125,2.4609375,3.2109375
2452641240000,2.830078125,3.359375,0.654296875,9.859375,2.453125,3.34375
2452643806000,2.646484375,3.48046875,0.60546875,10.171875,2.546875,0.58984375
2452646336000,2.46484375,3.603515625,0.5703125,10.359375,2.5390625,-2.0703125
2452648755000,2.275390625,3.701171875,0.53515625,10.34375,2.5390625,-2.0
2452651374000,2.111328125,3.845703125,0.537109375,10.30078125,2.44140625,-7.9453125
2452653766000,1.96484375,3.974609375,0.54296875,10.27734375,2.44140625,-7.859375
2452656203000,1.81640625,4.119140625,0.556640625,10.25390625,2.43359375,-7.7734375
2452658596000,1.703125,4.26171875,0.568359375,9.96875,2.7578125,-10.953125
2452661296000,1.603515625,4.41015625,0.587890625,9.25,3.515625,-14.23046875
2452663863000,1.49609375,4.533203125,0.591796875,9.21875,3.5078125,-14.12890625
2452666259000,1.3359375,4.62109375,0.58203125,8.32421875,4.640625,-17.26171875
2452669178000,1.169921875,4.705078125,0.552734375,7.42578125,6.1015625,-20.29296875
2452671369000,0.962890625,4.767578125,0.490234375,6.34765625,7.42578125,-24.00390625
2452676409000,0.521484375,4.720703125,0.314453125,5.51171875,8.51171875,-28.44140625
2452683821000,-0.01953125,4.56640625,-0.1953125,3.65234375,9.36328125,-38.4140625
2452692812000,-0.287109375,3.931640625,-1.015625,1.5390625,9.0859375,-46.28125
2452696295000,-0.3359375,3.13671875,-1.69140625,0.97265625,8.453125,-48.65625
2452698631000,-0.353515625,2.6640625,-2.015625,0.66015625,7.71875,-49.68359375
2452703697000,-0.484375,1.67578125,-2.6640625,0.58984375,7.8125,-49.58984375
2452706577000,-0.634765625,1.16796875,-2.978515625,0.2421875,7.17578125,-48.54296875
2452708649000,-0.873046875,0.6640625,-3.244140625,-0.078125,6.5625,-45.84765625
2452711202000,-1.166015625,0.18359375,-3.474609375,-0.3046875,5.67578125,-42.52734375
2452713642000,-1.494140625,-0.259765625,-3.673828125,-0.41796875,4.7734375,-38.7578125
2452716205000,-1.845703125,-0.693359375,-3.798828125,-0.42578125,4.8359375,-38.765625
2452718629000,-2.21875,-1.08984375,-3.88671875,-0.23046875,3.60546875,-34.875
2452721114000,-2.556640625,-1.46875,-3.904296875,-0.01171875,2.3203125,-30.90625
2452723667000,-2.857421875,-1.806640625,-3.876953125,-0.01171875,2.375,-30.9296875
2452726105000,-3.087890625,-2.115234375,-3.7734375,-0.00390625,2.421875,-30.9609375
2452728618000,-3.28515625,-2.396484375,-3.6640625,0.13671875,1.29296875,-27.09765625
2452731169000,-3.3984375,-2.650390625,-3.521484375,0.1171875,0.4296875,-23.23828125
2452733632000,-3.490234375,-2.87890625,-3.357421875,0.01953125,-0.19140625,-19.29296875
2452739278000,-3.48046875,-3.26171875,-2.98828125,0.125,-0.59765625,-15.35546875
2452746133000,-3.28515625,-3.5625,-2.5234375,1.01953125,-1.21484375,-8.03125
2452753586000,-3.015625,-3.357421875,-2.224609375,1.484375,-1.83203125,-3.09765625
2452758542000,-2.82421875,-3.154296875,-2.13671875,1.5234375,-1.79296875,-3.20703125
2452760952000,-2.70703125,-3.09375,-2.107421875,1.25390625,-2.22265625,-1.13671875
2452763590000,-2.611328125,-3.060546875,-2.095703125,0.828125,-2.80078125,0.75
2452765923000,-2.509765625,-3.0703125,-2.076171875,0.8359375,-2.78515625,0.6953125
2452768499000,-2.388671875,-3.12890625,-2.087890625,0.171875,-3.671875,2.62109375
2452771086000,-2.263671875,-3.2265625,-2.078125,-0.53515625,-4.81640625,4.46484375
2452773472000,-2.12109375,-3.337890625,-2.0625,-0.86328125,-6.03125,6.09375
2452780924000,-1.609375,-3.630859375,-1.86328125,-0.421875,-7.1015625,7.6796875
2452786003000,-1.2265625,-3.85546875,-1.642578125,-0.44921875,-10.24609375,11.0703125
2452793463000,-0.775390625,-3.888671875,-1.205078125,0.93359375,-12.20703125,14.8203125
2452795990000,-0.64453125,-3.859375,-1.044921875,1.37109375,-12.82421875,16.41796875
2452798359000,-0.490234375,-3.8515625,-0.8671875,1.38671875,-12.80859375,16.33984375
2452800959000,-0.34765625,-3.837890625,-0.708984375,2.00390625,-13.30078125,17.91015625
2452803566000,-0.197265625,-3.806640625,-0.525390625,2.79296875,-13.58984375,19.6171875
2452805924000,-0.05859375,-3.759765625,-0.37109375,2.81640625,-13.58203125,19.5390625
2452808492000,0.07421875,-3.677734375,-0.203125,3.55859375,-13.74609375,21.22265625
2452810864000,0.22265625,-3.5859375,-0.048828125,4.08203125,-13.79296875,22.59375
2452815988000,0.529296875,-3.296875,0.244140625,4.4453125,-13.9375,23.56640625
2452818293000,0.705078125,-3.12890625,0.3359375,4.4609375,-13.9453125,23.48828125
2452820926000,0.919921875,-2.966796875,0.44140625,4.59375,-14.12890625,24.33984375
2452823586000,1.130859375,-2.810546875,0.556640625,4.609375,-14.13671875,24.26953125
2452825793000,1.34765625,-2.671875,0.615234375,4.75,-14.3359375,25.26953125
2452828468000,1.572265625,-2.53515625,0.69140625,4.765625,-14.34375,25.19921875
2452830694000,1.79296875,-2.388671875,0.775390625,5.41015625,-14.046875,27.37890625
2452833421000,2.060546875,-2.220703125,0.83203125,5.42578125,-14.0625,27.31640625
2452835985000,2.333984375,-2.017578125,0.875,5.9921875,-13.3984375,28.046875
2452838269000,2.646484375,-1.771484375,0.916015625,6.76171875,-12.390625,28.484375
2452840902000,2.982421875,-1.45703125,0.939453125,6.76953125,-12.40625,28.421875
2452843408000,3.333984375,-1.11328125,0.943359375,7.55078125,-11.03515625,28.58203125
2452845795000,3.697265625,-0.7734375,0.919921875,7.55078125,-11.04296875,28.54296875
2452848416000,4.03125,-0.4375,0.90234375,7.83984375,-9.890625,28.3125
2452850777000,4.37890625,-0.158203125,0.8515625,8.10546875,-8.98828125,27.78515625
2452856251000,5.05078125,0.3984375,0.638671875,8.3515625,-7.953125,27.22265625
2452863375000,5.94921875,1.28515625,0.169921875,8.33984375,-4.86328125,25.5078125
2452872315000,6.982421875,2.220703125,-0.45703125,8.9375,-1.59375,22.15625
2452875609000,7.328125,2.48828125,-0.669921875,9.33203125,0.0,19.8359375
2452878363000,7.955078125,2.96875,-1.162109375,9.5,1.65625,17.3984375
2452883374000,8.404296875,3.33984375,-1.646484375,9.453125,1.765625,17.4375
2452886003000,8.58203125,3.45703125,-1.912109375,9.2890625,3.13671875,15.25
2452888207000,8.7265625,3.544921875,-2.1796875,8.9375,4.6953125,13.23828125
2452890693000,8.822265625,3.603515625,-2.435546875,8.80859375,6.3125,10.88671875
2452893196000,8.943359375,3.6484375,-2.685546875,8.875,7.546875,8.23046875
2452898327000,9.125,3.705078125,-3.212890625,9.40625,8.34765625,5.08203125
2452905671000,9.3125,3.705078125,-3.90625,10.44921875,8.28515625,-2.40625
2452914692000,8.966796875,3.71484375,-4.515625,9.0078125,7.6015625,-7.82421875
2452918221000,8.142578125,3.759765625,-4.8125,8.8984375,7.859375,-7.83984375
2452920524000,7.544921875,3.80078125,-4.919921875,8.0625,7.0546875,-10.1015625
2452923220000,6.904296875,3.849609375,-5.0390625,7.37109375,5.8671875,-12.7421875
2452925839000,6.240234375,3.880859375,-5.099609375,7.30078125,5.9921875,-12.734375
2452928168000,5.611328125,3.9140625,-5.138671875,7.03515625,4.48046875,-16.1640625
2452930721000,5.06640625,3.953125,-5.17578125,6.74609375,2.8046875,-20.0703125
2452933295000,4.587890625,3.970703125,-5.181640625,5.96875,0.82421875,-23.65625
2452940599000,3.44921875,3.70703125,-5.173828125,3.23046875,-3.70703125,-28.765625
2452945574000,2.857421875,3.259765625,-5.130859375,1.87109375,-6.20703125,-30.5703125
2452957556000,2.037109375,2.08203125,-5.001953125,0.73828125,-13.62109375,-35.046875
2452960581000,1.66796875,1.474609375,-4.859375,0.58203125,-13.42578125,-35.03125
2452963062000,1.4609375,1.154296875,-4.765625,0.24609375,-15.7265625,-35.01171875
2452965691000,1.17578125,0.841796875,-4.6796875,-0.28125,-17.71875,-33.78515625
2452968038000,0.845703125,0.521484375,-4.556640625,-0.3515625,-17.640625,-33.79296875
2452970666000,0.46875,0.224609375,-4.419921875,-0.91796875,-19.0859375,-31.67578125
2452973032000,0.03515625,-0.0625,-4.228515625,-1.49609375,-19.87890625,-28.77734375
2452980579000,-1.3359375,-0.806640625,-3.482421875,-2.09765625,-20.02734375,-25.4765625
2452984929000,-1.78515625,-0.998046875,-3.1484375,-2.46875,-19.67578125,-19.17578125
2452995489000,-3.73828125,-1.48828125,-1.11328125,-2.48046875,-17.10546875,-11.3828125
2452998063000,-4.09375,-1.595703125,-0.693359375,-2.95703125,-15.7578125,-9.3046875
2453000484000,-4.421875,-1.7109375,-0.29296875,-2.95703125,-15.7734375,-9.2578125
2453003057000,-4.6953125,-1.865234375,0.1015625,-3.58203125,-14.3828125,-7.41015625
2453005415000,-4.9609375,-2.02734375,0.4375,-3.57421875,-14.40625,-7.36328125
2453007898000,-5.166015625,-2.203125,0.7421875,-3.9921875,-13.140625,-5.765625
2453010535000,-5.326171875,-2.37109375,1.001953125,-4.2265625,-11.99609375,-4.1328125
2453015520000,-5.607421875,-2.708984375,1.43359375,-4.171875,-12.08984375,-4.03125
2453017786000,-5.728515625,-2.8828125,1.61328125,-3.85546875,-9.7109375,-0.75390625
2453020350000,-5.845703125,-3.0390625,1.763671875,-3.80859375,-9.7734375,-0.70703125
2453023024000,-5.95703125,-3.18359375,1.919921875,-3.76171875,-9.8359375,-0.66796875
2453025429000,-6.078125,-3.31640625,2.044921875,-3.7265625,-8.81640625,0.9609375
2453027924000,-6.20703125,-3.41796875,2.14453125,-3.9375,-8.00390625,2.56640625
2453030284000,-6.310546875,-3.51953125,2.23046875,-4.1875,-7.45703125,4.1875
2453035508000,-6.48828125,-3.685546875,2.337890625,-4.0703125,-7.62109375,4.2578125
2453039567000,-6.5859375,-3.775390625,2.404296875,-4.3515625,-7.7265625,8.0625
2453047254000,-6.791015625,-3.96484375,2.564453125,-4.48046875,-8.96484375,11.73828125
2453054949000,-6.779296875,-4.01953125,2.888671875,-3.33203125,-9.484375,13.7890625
2453057845000,-6.65625,-4.013671875,3.28515625,-2.234375,-9.18359375,14.5
2453062854000,-6.498046875,-4.048828125,3.830078125,-2.0859375,-9.41015625,14.5078125
2453065784000,-6.373046875,-4.091796875,4.1171875,-1.16796875,-8.7265625,15.11328125
2453067618000,-6.2421875,-4.1171875,4.408203125,-0.59765625,-7.73046875,15.578125
2453070246000,-6.107421875,-4.16015625,4.6953125,-0.17578125,-6.68359375,15.9453125
2453072939000,-5.94140625,-4.201171875,4.947265625,0.21875,-5.734375,16.3515625
2453077821000,-5.671875,-4.349609375,5.365234375,0.83203125,-5.0390625,16.9453125
2453085309000,-5.361328125,-4.51953125,5.7578125,2.15234375,-3.875,17.9296875
2453092733000,-4.998046875,-4.435546875,5.853515625,3.7265625,-2.75390625,18.5
2453097818000,-4.619140625,-4.1875,5.787109375,3.8671875,-3.05859375,18.390625
2453100436000,-4.341796875,-4.0390625,5.71484375,4.49609375,-2.3515625,18.328125
2453102865000,-4.03125,-3.88671875,5.6171875,4.8359375,-1.7421875,18.1328125
2453105345000,-3.658203125,-3.732421875,5.509765625,4.8828125,-1.875,18.0703125
2453107712000,-3.27734375,-3.5625,5.3828125,5.3984375,-1.1953125,18.09375
2453110124000,-2.8515625,-3.41796875,5.255859375,5.99609375,-0.609375,18.25
2453112765000,-2.419921875,-3.2734375,5.109375,6.5234375,0.0078125,18.66796875
2453120395000,-1.05078125,-2.78515625,4.62109375,7.66796875,1.58984375,19.88671875
2453125217000,-0.09375,-2.369140625,4.21875,8.61328125,2.2578125,20.39453125
2453135137000,1.802734375,-1.24609375,3.255859375,10.5859375,4.203125,19.62109375
2453140152000,2.8828125,-0.689453125,2.580078125,10.91796875,5.4765625,18.11328125
2453142520000,3.4296875,-0.408203125,2.201171875,10.828125,6.81640625,16.25
2453145209000,3.970703125,-0.103515625,1.775390625,11.21875,8.1875,14.47265625
2453147574000,4.431640625,0.203125,1.3671875,11.21875,8.171875,14.44921875
2453150133000,4.806640625,0.57421875,0.921875,12.34765625,9.71484375,13.13671875
2453152591000,5.05859375,0.970703125,0.474609375,13.4296875,11.5078125,11.98828125
2453155064000,5.22265625,1.353515625,0.01171875,14.0078125,13.05078125,10.26953125
2453157536000,5.29296875,1.744140625,-0.458984375,14.0078125,13.07421875,10.28515625
2453160070000,5.306640625,2.09765625,-0.939453125,14.15234375,13.80078125,7.6171875
2453162527000,5.259765625,2.42578125,-1.4453125,14.14453125,13.84765625,7.65625
2453165225000,5.16796875,2.6953125,-1.943359375,14.0546875,13.75,4.63671875
2453167529000,5.029296875,2.962890625,-2.443359375,14.046875,13.8203125,4.68359375
2453170107000,4.814453125,3.181640625,-2.947265625,12.57421875,12.578125,-0.6328125
2453175029000,4.291015625,3.52734375,-3.869140625,11.4296875,11.85546875,-2.6796875
2453182548000,3.2890625,3.775390625,-4.876953125,10.3984375,10.55859375,-5.6484375
2453191699000,2.29296875,3.99609375,-5.330078125,10.19921875,8.9453125,-9.6015625
2453194955000,1.662109375,4.2578125,-5.3984375,10.09765625,9.203125,-9.4453125
2453197500000,1.34765625,4.404296875,-5.392578125,9.625,8.32421875,-11.296875
2453199853000,0.978515625,4.51171875,-5.373046875,8.65234375,7.64453125,-12.7890625
2453202483000,0.6171875,4.611328125,-5.3671875,8.58984375,7.76953125,-12.6875
2453205074000,0.205078125,4.7265625,-5.361328125,7.47265625,7.42578125,-14.25390625
2453207490000,-0.197265625,4.79296875,-5.353515625,6.33984375,7.2578125,-15.94140625
2453210393000,-0.587890625,4.849609375,-5.349609375,5.7578125,6.90234375,-18.19140625
2453217456000,-1.474609375,4.87890625,-5.41796875,5.08203125,5.4453125,-24.02734375
2453222526000,-1.78125,4.630859375,-5.521484375,3.625,4.65625,-26.28125
2453234467000,-1.681640625,3.18359375,-5.68359375,-0.8203125,-0.296875,-29.9921875
2453237450000,-1.548828125,2.212890625,-5.533203125,-0.9921875,-0.1171875,-29.859375
2453239771000,-1.513671875,1.701171875,-5.38671875,-2.046875,-2.1328125,-29.390625
2453242422000,-1.51953125,1.216796875,-5.193359375,-3.0078125,-4.3046875,-28.2890625
2453244883000,-1.607421875,0.7578125,-4.94140625,-3.078125,-4.21875,-28.25
2453247412000,-1.712890625,0.306640625,-4.640625,-3.90625,-6.21484375,-26.984375
2453250326000,-1.876953125,-0.1015625,-4.322265625,-4.59375,-8.03125,-25.66796875
2453252361000,-2.091796875,-0.48828125,-3.947265625,-5.0859375,-9.8046875,-24.2734375
2453257837000,-2.62109375,-1.193359375,-3.140625,-5.64453125,-11.31640625,-22.640625
2453264923000,-3.583984375,-2.27734375,-1.837890625,-7.3203125,-13.69140625,-19.3125
2453272367000,-4.35546875,-3.45703125,-0.5546875,-8.0546875,-15.40234375,-15.7421875
2453277421000,-4.57421875,-3.875,-0.126953125,-7.9375,-16.12890625,-13.48046875
2453279856000,-4.8515625,-4.716796875,0.693359375,-7.73046875,-16.61328125,-11.0546875
2453284882000,-4.99609375,-5.494140625,1.458984375,-7.59765625,-16.75390625,-11.1328125
2453287589000,-4.986328125,-5.83984375,1.853515625,-7.421875,-17.03125,-8.73828125
2453289765000,-4.90234375,-6.16796875,2.23046875,-6.96875,-17.2421875,-6.2578125
2453292358000,-4.798828125,-6.439453125,2.626953125,-5.984375,-17.34765625,-3.80859375
2453299550000,-4.287109375,-6.939453125,3.771484375,-4.734375,-17.515625,-1.67578125
2453304880000,-3.890625,-7.06640625,4.447265625,-2.921875,-17.28125,2.6640625
2453314649000,-3.34375,-7.0859375,5.59765625,0.140625,-15.83203125,8.234375
2453319652000,-3.1484375,-7.041015625,6.126953125,0.3203125,-16.12890625,7.9765625
2453322274000,-3.041015625,-6.98828125,6.390625,1.8046875,-14.921875,9.5078125
2453324728000,-2.908203125,-6.900390625,6.6484375,3.19921875,-13.40234375,10.59375
2453327144000,-2.740234375,-6.822265625,6.8828125,3.26953125,-13.55859375,10.4609375
2453329739000,-2.541015625,-6.71484375,7.091796875,4.62109375,-11.96484375,11.2109375
2453332208000,-2.33203125,-6.591796875,7.3046875,6.26171875,-10.3828125,11.84375
2453334767000,-2.125,-6.419921875,7.501953125,8.2421875,-8.640625,12.40234375
2453339568000,-1.740234375,-5.93359375,7.748046875,10.109375,-6.86328125,12.86328125
2453347137000,-1.52734375,-4.89453125,7.794921875,11.8359375,-3.1328125,14.08984375
2453354503000,-1.525390625,-3.84375,7.30859375,11.14453125,0.07421875,14.37890625
2453357222000,-1.490234375,-3.548828125,7.044921875,10.84765625,1.06640625,13.9296875
2453362181000,-1.23046875,-3.044921875,6.416015625,10.85546875,0.74609375,13.7734375
2453364685000,-1.009765625,-2.8359375,6.09375,10.8046875,1.265625,13.09765625
2453366972000,-0.744140625,-2.626953125,5.740234375,10.69921875,1.46875,12.28125
2453369677000,-0.408203125,-2.421875,5.361328125,10.453125,1.6328125,11.5
2453371896000,-0.029296875,-2.23046875,4.998046875,10.453125,1.5078125,11.4453125
2453374536000,0.361328125,-2.05078125,4.638671875,9.984375,1.546875,10.71875
2453382117000,1.517578125,-1.59375,3.583984375,9.50390625,0.99609375,10.1796875
2453386585000,1.890625,-1.482421875,3.283203125,8.72265625,0.34765625,9.57421875
2453397246000,3.5078125,-1.373046875,2.12890625,8.328125,-0.71484375,8.265625
2453401982000,4.171875,-1.40625,1.830078125,8.3125,-0.81640625,8.234375
2453404600000,4.498046875,-1.369140625,1.69921875,9.0625,-0.828125,7.96875
2453406970000,4.798828125,-1.29296875,1.564453125,9.93359375,-0.72265625,7.55078125
2453409913000,5.107421875,-1.19140625,1.41015625,10.38671875,-0.41796875,7.35546875
2453411976000,5.353515625,-1.076171875,1.244140625,10.3671875,0.05078125,7.37109375
2453414501000,5.55859375,-0.896484375,1.03515625,10.359375,0.01953125,7.37109375
2453416829000,5.72265625,-0.705078125,0.83984375,10.25390625,0.67578125,7.296875
2453419539000,5.82421875,-0.47265625,0.591796875,10.46875,1.17578125,6.85546875
2453421944000,5.87890625,-0.203125,0.34765625,10.46875,1.16796875,6.87109375
2453424305000,5.908203125,0.115234375,0.08984375,10.46875,1.16015625,6.89453125
2453426990000,5.89453125,0.4609375,-0.20703125,10.83984375,1.5625,6.03125
2453429331000,5.802734375,0.822265625,-0.486328125,10.99609375,1.90625,4.94921875
2453431817000,5.705078125,1.2109375,-0.78125,10.9140625,2.171875,3.41796875
2453436924000,5.439453125,1.95703125,-1.353515625,10.5234375,2.3515625,1.71484375
2453444446000,4.92578125,3.029296875,-2.126953125,9.609375,2.76171875,-1.51953125
2453451985000,4.259765625,4.212890625,-2.68359375,8.91015625,3.19921875,-5.21484375
2453456612000,4.029296875,4.59765625,-2.830078125,7.50390625,4.1953125,-8.30859375
2453459536000,3.66015625,5.205078125,-3.09375,5.25390625,5.2734375,-11.16796875
2453462014000,3.4921875,5.376953125,-3.2578125,5.23828125,5.359375,-11.02734375
2453464332000,3.302734375,5.46484375,-3.419921875,3.4296875,6.171875,-13.22265625
2453467000000,3.103515625,5.4765625,-3.615234375,3.4140625,6.2734375,-13.08203125
2453469226000,2.861328125,5.431640625,-3.82421875,2.16796875,6.80859375,-15.1796875
2453471818000,2.5546875,5.400390625,-4.056640625,1.6953125,7.1484375,-16.7890625
2453479277000,1.296875,5.4140625,-4.880859375,1.38671875,7.62890625,-16.97265625
2453486834000,-0.162109375,5.24609375,-5.74609375,0.62890625,8.25,-16.84765625
2453494388000,-1.07421875,5.01171875,-6.400390625,0.05078125,5.95703125,-19.12109375
2453499350000,-1.166015625,4.8359375,-6.712890625,-0.04296875,6.23046875,-18.90234375
2453501877000,-1.115234375,4.736328125,-6.875,0.0,4.8359375,-19.796875
2453504199000,-1.029296875,4.640625,-7.06640625,-0.3515625,3.72265625,-19.8515625
2453506920000,-0.9296875,4.517578125,-7.26953125,-0.40625,3.87890625,-19.7421875
2453509174000,-0.845703125,4.373046875,-7.509765625,-2.046875,1.875,-18.1640625
2453515169000,-0.599609375,3.93359375,-7.98046875,-3.3984375,0.375,-17.421875
2453521733000,0.005859375,2.751953125,-8.47265625,-6.00390625,-4.7421875,-15.203125
2453531106000,0.6484375,1.248046875,-8.296875,-8.30859375,-9.40234375,-11.234375
2453534395000,0.861328125,0.416015625,-7.6953125,-8.44140625,-9.05078125,-11.203125
2453536690000,0.880859375,0.099609375,-7.279296875,-9.00390625,-10.90234375,-9.30859375
2453539300000,0.853515625,-0.140625,-6.755859375,-9.23046875,-12.52734375,-7.90625
2453541651000,0.763671875,-0.341796875,-6.154296875,-9.27734375,-12.40234375,-7.921875
2453544247000,0.580078125,-0.51953125,-5.513671875,-9.23828125,-14.35546875,-6.8984375
2453546715000,0.328125,-0.703125,-4.826171875,-8.9609375,-16.3828125,-5.84765625
2453549211000,-0.03125,-0.87890625,-4.09765625,-8.92578125,-18.34765625,-5.05078125
2453551711000,-0.423828125,-1.103515625,-3.3828125,-8.95703125,-18.27734375,-5.06640625
2453556627000,-1.353515625,-1.630859375,-2.052734375,-10.078125,-20.74609375,-4.5703125
2453564173000,-2.759765625,-2.548828125,-0.255859375,-10.05859375,-20.91015625,-4.109375
2453573742000,-3.90625,-3.513671875,1.482421875,-7.29296875,-19.26171875,-1.66015625
2453576506000,-4.47265625,-4.1796875,2.6171875,-7.18359375,-19.41796875,-1.73046875
2453579105000,-4.73828125,-4.490234375,3.1796875,-5.765625,-18.71484375,-0.03515625
2453581777000,-5.009765625,-4.79296875,3.720703125,-4.390625,-17.89453125,1.94921875
2453584229000,-5.2578125,-5.095703125,4.279296875,-4.3125,-18.02734375,1.89453125
2453586698000,-5.494140625,-5.38671875,4.814453125,-2.8203125,-17.171875,3.84765625
2453589469000,-5.654296875,-5.63671875,5.30078125,-1.3984375,-16.26171875,5.68359375
2453591568000,-5.806640625,-5.87109375,5.794921875,-0.015625,-15.3046875,7.1640625
2453596631000,-5.861328125,-6.255859375,6.650390625,0.171875,-15.671875,6.9765625
2453599296000,-5.798828125,-6.396484375,7.03125,1.44140625,-14.73046875,8.3203125
2453601631000,-5.697265625,-6.552734375,7.376953125,2.45703125,-13.8203125,9.80859375
2453604051000,-5.52734375,-6.701171875,7.697265625,2.54296875,-14.0390625,9.69140625
2453606559000,-5.33984375,-6.8359375,7.982421875,3.5234375,-13.03515625,11.23046875
2453609078000,-5.10546875,-6.95703125,8.240234375,4.5078125,-12.03125,12.7578125
2453611401000,-4.810546875,-7.037109375,8.46875,5.5859375,-10.95703125,14.1484375
2453616626000,-4.126953125,-7.111328125,8.822265625,5.71875,-11.41796875,13.8359375
2453618909000,-3.740234375,-7.119140625,8.943359375,7.05859375,-10.265625,15.10546875
2453621536000,-3.3203125,-7.07421875,9.052734375,8.484375,-9.10546875,16.20703125
2453624071000,-2.87890625,-6.9765625,9.107421875,8.5234375,-9.33984375,16.04296875
2453626463000,-2.42578125,-6.845703125,9.126953125,9.55078125,-8.0234375,16.8828125
2453629034000,-1.921875,-6.666015625,9.10546875,10.46484375,-6.64453125,17.54296875
2453631517000,-1.41015625,-6.453125,9.025390625,11.57421875,-5.359375,17.6171875
2453638802000,0.359375,-5.482421875,8.650390625,13.22265625,-4.515625,17.04296875
2453646449000,2.123046875,-3.921875,7.826171875,15.546875,-2.17578125,16.828125
2453654017000,3.697265625,-2.34765625,6.474609375,14.5546875,0.609375,15.25
2453658805000,4.720703125,-1.357421875,5.33203125,14.484375,0.3515625,15.203125
2453661384000,5.22265625,-0.931640625,4.701171875,13.58984375,1.30859375,13.53515625
2453664062000,5.703125,-0.55078125,4.0546875,12.41015625,2.046875,11.62109375
2453666361000,6.16015625,-0.263671875,3.390625,12.38671875,1.96875,11.64453125
2453668922000,6.583984375,-0.037109375,2.732421875,11.26953125,2.51171875,9.7421875
2453671332000,6.966796875,0.154296875,2.06640625,10.3359375,2.9140625,8.03515625
2453674035000,7.3125,0.25390625,1.4140625,9.71484375,3.23046875,6.640625
2453678925000,7.89453125,0.328125,0.16015625,9.52734375,3.625,5.1015625
2453686308000,8.720703125,0.31640625,-1.486328125,9.8984375,4.609375,2.23046875
2453693802000,9.53515625,0.189453125,-2.888671875,9.19921875,5.30078125,0.03125
